time,accX,accY,accZ,pitch,roll,yaw
0.015060,0.000000,0.000000,0.000000,0.000000,0.000000,0.000000
0.015060,0.000000,0.000000,0.000000,0.000000,0.000000,0.000000
0.100000,0.000000,0.000000,0.000000,0.000000,0.000000,0.000000
0.150000,0.000000,0.000000,0.000000,0.000000,0.000000,0.000000
0.200000,0.000000,0.000000,0.000000,0.000000,0.000000,0.000000
0.250000,0.000000,0.000000,0.000000,0.000000,0.000000,0.000000
0.300000,0.000000,0.000000,0.000000,0.000000,0.000000,0.000000
0.350000,0.001226,0.901384,4.267427,0.000222,0.000113,66529.419319
0.400000,0.002528,1.598200,8.834938,0.000459,0.000232,66529.419676
0.450000,0.003952,2.295523,13.725435,0.000726,0.000354,66529.420054
0.500000,0.005477,2.920778,18.941505,0.001024,0.000483,66529.420451
0.550000,0.007073,3.474837,24.485671,0.001340,0.000619,66529.420863
0.600000,0.008750,3.958023,30.360314,0.001678,0.000759,66529.421277
0.650000,0.010508,4.370721,36.568010,0.002029,0.000896,66529.421721
0.700000,0.012359,4.713522,43.111189,0.002388,0.001037,66529.422304
0.750000,0.014307,4.986970,49.992342,0.002767,0.001174,66529.423026
0.800000,0.016361,5.188925,57.213810,0.003170,0.001310,66529.423961
0.850000,0.018533,5.319961,64.778076,0.003605,0.001443,66529.425128
0.900000,0.020792,5.450966,72.589586,0.004078,0.001573,66529.426552
0.950000,0.023147,5.581946,80.648742,0.004605,0.001703,66529.428190
1.000000,0.025601,5.712904,88.956699,0.005174,0.001836,66529.430005
1.050000,0.028137,5.843841,97.513447,0.005802,0.001969,66529.431986
1.100000,0.030761,5.974749,106.320177,0.006476,0.002102,66529.434039
1.150000,0.033448,6.074679,115.300925,0.007186,0.002241,66529.436169
1.200000,0.036181,6.149433,124.441048,0.007931,0.002384,66529.438387
1.250000,0.038965,6.203831,133.725320,0.008708,0.002533,66529.440724
1.300000,0.041798,6.241972,143.137936,0.009524,0.002687,66529.443255
1.350000,0.044669,6.267593,152.662378,0.010377,0.002848,66529.446033
1.400000,0.047606,6.283992,162.281418,0.011274,0.003016,66529.449104
1.450000,0.050627,6.294073,171.977207,0.012211,0.003191,66529.452421
1.500000,0.053716,6.300340,181.731119,0.013191,0.003376,66529.455898
1.550000,0.056878,6.304685,191.524300,0.014202,0.003574,66529.459480
1.600000,0.060092,6.308486,201.337213,0.015221,0.003791,66529.463135
1.650000,0.063304,6.312490,211.149841,0.016234,0.004033,66529.466808
1.700000,0.066536,6.316693,220.962282,0.017227,0.004298,66529.470518
1.750000,0.069724,6.321134,230.774413,0.018212,0.004581,66529.474260
1.800000,0.072871,6.325828,240.586336,0.019204,0.004880,66529.478177
1.850000,0.076065,6.330796,250.398250,0.020181,0.005198,66529.482350
1.900000,0.079276,6.336027,260.210138,0.021132,0.005533,66529.486681
1.950000,0.082492,6.341532,270.022061,0.022065,0.005882,66529.491183
2.000000,0.085656,6.347329,279.834104,0.022966,0.006247,66529.495885
2.050000,0.088808,6.353421,289.646366,0.023834,0.006636,66529.500786
2.100000,0.091999,6.359791,299.458807,0.024687,0.007046,66529.505872
2.150000,0.095211,6.366407,309.271244,0.025522,0.007479,66529.511030
2.200000,0.098458,6.373255,319.083900,0.026343,0.007932,66529.516154
2.250000,0.101710,6.380287,328.896369,0.027145,0.008404,66529.521098
2.300000,0.104966,6.387469,338.708594,0.027933,0.008893,66529.525866
2.350000,0.108214,6.394759,348.520553,0.028701,0.009399,66529.530394
2.400000,0.111433,6.402101,358.332209,0.029437,0.009918,66529.534676
2.450000,0.114619,6.409456,368.143624,0.030125,0.010447,66529.538701
2.500000,0.117767,6.416804,377.954595,0.030758,0.010987,66529.542507
2.550000,0.120877,6.424135,387.765486,0.031325,0.011533,66529.546127
2.600000,0.123955,6.431453,397.576438,0.031818,0.012082,66529.549572
2.650000,0.127002,6.438736,407.387394,0.032266,0.012621,66529.552935
2.700000,0.130010,6.445978,417.198391,0.032674,0.013152,66529.556211
2.750000,0.132986,6.453171,427.009633,0.033047,0.013679,66529.559392
2.800000,0.135924,6.460277,436.821183,0.033386,0.014197,66529.562444
2.850000,0.138821,6.467230,446.632879,0.033688,0.014708,66529.565274
2.900000,0.141683,6.473964,456.444644,0.033953,0.015212,66529.567805
2.950000,0.144494,6.480408,466.256516,0.034177,0.015706,66529.569969
3.000000,0.147239,6.486502,476.068478,0.034365,0.016192,66529.571859
3.050000,0.149926,6.492231,485.880956,0.034514,0.016663,66529.573597
3.100000,0.152551,6.497563,495.693691,0.034632,0.017115,66529.575242
3.150000,0.155119,6.502497,505.506805,0.034733,0.017537,66529.576820
3.200000,0.157661,6.507060,515.320354,0.034822,0.017923,66529.578368
3.250000,0.160165,6.511291,525.134319,0.034905,0.018276,66529.579874
3.300000,0.162660,6.515116,534.948799,0.034977,0.018607,66529.581341
3.350000,0.165149,6.518523,544.763694,0.035033,0.018921,66529.582651
3.400000,0.167588,6.521493,554.578922,0.035083,0.019214,66529.583704
3.450000,0.169994,6.524084,564.394500,0.035130,0.019488,66529.584625
3.500000,0.172374,6.526289,574.210408,0.035172,0.019746,66529.585403
3.550000,0.174753,6.528097,584.026643,0.035213,0.019988,66529.586011
3.600000,0.177114,6.529526,593.843085,0.035253,0.020203,66529.586454
3.650000,0.179433,6.530628,603.659734,0.035287,0.020394,66529.586751
3.700000,0.181717,6.531470,613.476711,0.035316,0.020562,66529.586995
3.750000,0.183959,6.532087,623.293916,0.035340,0.020710,66529.587233
3.800000,0.186172,6.532551,633.111571,0.035359,0.020842,66529.587459
3.850000,0.188357,6.532902,642.929780,0.035373,0.020959,66529.587675
3.900000,0.190520,6.533182,652.748581,0.035384,0.021062,66529.587857
3.950000,0.192669,6.533428,662.567994,0.035394,0.021157,66529.587994
4.000000,0.194807,6.533659,672.387858,0.035405,0.021244,66529.588077
4.050000,0.196936,6.533884,682.208477,0.035415,0.021322,66529.588123
4.100000,0.199059,6.534103,692.029490,0.035425,0.021392,66529.588148
4.150000,0.201172,6.534315,701.850737,0.035434,0.021456,66529.588155
4.200000,0.203277,6.534526,711.672174,0.035443,0.021518,66529.588162
4.250000,0.205380,6.534736,721.493599,0.035452,0.021579,66529.588170
4.300000,0.207479,6.534946,731.314931,0.035460,0.021638,66529.588177
4.350000,0.209574,6.535157,741.136088,0.035469,0.021695,66529.588185
4.400000,0.211673,6.535377,750.957069,0.035479,0.021752,66529.588193
4.450000,0.213765,6.535643,760.777928,0.035488,0.021810,66529.588204
4.500000,0.215834,6.536020,770.598706,0.035498,0.021869,66529.588254
4.550000,0.217867,6.536552,780.419396,0.035508,0.021926,66529.588344
4.600000,0.219845,6.537265,790.239695,0.035518,0.021980,66529.588467
4.650000,0.221789,6.538231,800.059664,0.035527,0.022032,66529.588597
4.700000,0.223704,6.539483,809.879323,0.035537,0.022084,66529.588733
4.750000,0.225604,6.541067,819.698435,0.035548,0.022133,66529.588871
4.800000,0.227460,6.543058,829.517202,0.035558,0.022182,66529.589010
4.850000,0.229266,6.545554,839.335623,0.035569,0.022231,66529.589172
4.900000,0.231019,6.548557,849.153698,0.035581,0.022295,66529.589420
4.950000,0.232705,6.552051,858.971428,0.035601,0.022368,66529.589872
5.000000,0.234324,6.555989,868.788812,0.035626,0.022454,66529.590631
5.050000,0.235886,6.560402,878.605851,0.035658,0.022549,66529.591678
5.100000,0.237390,6.565258,888.422544,0.035691,0.022654,66529.593095
5.150000,0.238836,6.570618,898.238891,0.035730,0.022765,66529.594784
5.200000,0.240223,6.576451,908.054893,0.035771,0.022881,66529.596806
5.250000,0.241550,6.582741,917.870549,0.035816,0.023002,66529.599309
5.300000,0.242814,6.589456,927.685860,0.035861,0.023127,66529.602584
5.350000,0.244022,6.596589,937.500825,0.035907,0.023257,66529.606765
5.400000,0.245175,6.604117,947.315445,0.035951,0.023404,66529.611730
5.450000,0.246265,6.611932,957.129718,0.035996,0.023574,66529.617262
5.500000,0.247292,6.619880,966.943647,0.036042,0.023772,66529.623196
5.550000,0.248259,6.627896,976.757391,0.036087,0.024000,66529.629367
5.600000,0.249168,6.635967,986.570583,0.036133,0.024262,66529.635672
5.650000,0.250020,6.644095,996.383503,0.036179,0.024587,66529.642054
5.700000,0.250814,6.652285,1006.196272,0.036226,0.024987,66529.648515
5.750000,0.251552,6.660534,1016.008970,0.036273,0.025455,66529.655055
5.800000,0.252231,6.668843,1025.821886,0.036321,0.025986,66529.661675
5.850000,0.252852,6.677211,1035.634859,0.036368,0.026582,66529.668367
5.900000,0.253417,6.685639,1045.447976,0.036414,0.027243,66529.675133
5.950000,0.253916,6.694089,1055.261301,0.036460,0.027962,66529.681958
6.000000,0.254363,6.702478,1065.074903,0.036504,0.028726,66529.688814
6.050000,0.254778,6.710712,1074.888870,0.036549,0.029543,66529.695613
6.100000,0.255185,6.718746,1084.703248,0.036593,0.030413,66529.702352
6.150000,0.255618,6.726557,1094.518163,0.036638,0.031348,66529.709049
6.200000,0.256037,6.734087,1104.333637,0.036683,0.032341,66529.715761
6.250000,0.256435,6.741317,1114.149550,0.036729,0.033393,66529.722504
6.300000,0.256787,6.748222,1123.966227,0.036774,0.034502,66529.729361
6.350000,0.257139,6.754760,1133.783249,0.036819,0.035656,66529.736276
6.400000,0.257498,6.760887,1143.600719,0.036865,0.036852,66529.743170
6.450000,0.257868,6.766615,1153.418559,0.036912,0.038051,66529.749946
6.500000,0.258283,6.771964,1163.236752,0.036962,0.039262,66529.756509
6.550000,0.258741,6.776970,1173.055179,0.037016,0.040478,66529.762795
6.600000,0.259217,6.781628,1182.873739,0.037072,0.041710,66529.768823
6.650000,0.259711,6.785964,1192.692414,0.037132,0.042954,66529.774557
6.700000,0.260223,6.789963,1202.511045,0.037195,0.044231,66529.780055
6.750000,0.260752,6.793647,1212.329713,0.037261,0.045536,66529.785289
6.800000,0.261306,6.797034,1222.148441,0.037328,0.046882,66529.790201
6.850000,0.261886,6.800151,1231.967255,0.037397,0.048265,66529.794708
6.900000,0.262484,6.803008,1241.786199,0.037466,0.049679,66529.798787
6.950000,0.263094,6.805623,1251.605360,0.037536,0.051094,66529.802494
7.000000,0.263734,6.808051,1261.424840,0.037605,0.052493,66529.805913
7.050000,0.264408,6.810381,1271.244724,0.037673,0.053869,66529.809112
7.100000,0.265107,6.812666,1281.064953,0.037741,0.055218,66529.812164
7.150000,0.265826,6.814918,1290.885758,0.037810,0.056536,66529.815128
7.200000,0.266559,6.817135,1300.706900,0.037878,0.057782,66529.818042
7.250000,0.267308,6.819315,1310.528225,0.037946,0.058945,66529.820906
7.300000,0.268075,6.821459,1320.349714,0.038012,0.060033,66529.823722
7.350000,0.268860,6.823567,1330.171043,0.038078,0.061052,66529.826488
7.400000,0.269665,6.825641,1339.992266,0.038143,0.062000,66529.829211
7.450000,0.270490,6.827680,1349.813178,0.038209,0.062881,66529.831892
7.500000,0.271338,6.829700,1359.633914,0.038274,0.063699,66529.834539
7.550000,0.272207,6.831721,1369.454387,0.038339,0.064464,66529.837168
7.600000,0.273089,6.833743,1379.274473,0.038404,0.065174,66529.839797
7.650000,0.273975,6.835754,1389.094208,0.038470,0.065828,66529.842426
7.700000,0.274847,6.837748,1398.913630,0.038534,0.066420,66529.845055
7.750000,0.275725,6.839697,1408.732756,0.038597,0.066957,66529.847671
7.800000,0.276613,6.841589,1418.551647,0.038660,0.067441,66529.850269
7.850000,0.277519,6.843404,1428.370057,0.038723,0.067874,66529.852796
7.900000,0.278426,6.845108,1438.188207,0.038786,0.068267,66529.855292
7.950000,0.279329,6.846653,1448.005893,0.038848,0.068620,66529.857786
8.000000,0.280227,6.848041,1457.823171,0.038906,0.068956,66529.860271
8.050000,0.281100,6.849284,1467.640097,0.038953,0.069269,66529.862697
8.100000,0.281948,6.850408,1477.456872,0.038992,0.069562,66529.865009
8.150001,0.282787,6.851401,1487.273780,0.039020,0.069830,66529.867219
8.200000,0.283619,6.852283,1497.090960,0.039044,0.070078,66529.869285
8.250000,0.284441,6.853024,1506.908675,0.039060,0.070292,66529.871268
8.300000,0.285256,6.853642,1516.726864,0.039070,0.070477,66529.873139
8.350000,0.286059,6.854149,1526.545462,0.039077,0.070623,66529.874808
8.400001,0.286849,6.854561,1536.364345,0.039082,0.070733,66529.876079
8.450000,0.287632,6.854885,1546.183427,0.039086,0.070811,66529.876870
8.500000,0.288413,6.855133,1556.002517,0.039091,0.070874,66529.877279
8.550000,0.289180,6.855352,1565.821496,0.039095,0.070927,66529.877457
8.600000,0.289931,6.855577,1575.640137,0.039099,0.070974,66529.877507
8.650001,0.290672,6.855804,1585.458518,0.039104,0.071014,66529.877516
8.700000,0.291408,6.856029,1595.276754,0.039107,0.071050,66529.877517
8.750000,0.292143,6.856254,1605.094964,0.039111,0.071088,66529.877518
8.800000,0.292874,6.856477,1614.913162,0.039116,0.071130,66529.877519
8.850000,0.293603,6.856698,1624.731344,0.039121,0.071175,66529.877520
8.900001,0.294327,6.856916,1634.549854,0.039126,0.071223,66529.877522
8.950000,0.295046,6.857132,1644.368871,0.039132,0.071276,66529.877523
9.000000,0.295761,6.857345,1654.188560,0.039139,0.071333,66529.877525
9.050000,0.296470,6.857554,1664.008766,0.039146,0.071393,66529.877527
9.100000,0.297172,6.857759,1673.829429,0.039154,0.071457,66529.877530
9.150001,0.297867,6.857962,1683.650532,0.039162,0.071524,66529.877532
9.200000,0.298546,6.858162,1693.471974,0.039170,0.071593,66529.877536
9.250000,0.299200,6.858361,1703.293760,0.039178,0.071664,66529.877544
9.300000,0.299827,6.858558,1713.115997,0.039186,0.071735,66529.877573
9.350000,0.300429,6.858754,1722.938674,0.039194,0.071804,66529.877623
9.400001,0.301016,6.858951,1732.762422,0.039202,0.071872,66529.877689
9.450000,0.301603,6.859148,1742.586875,0.039211,0.071938,66529.877796
9.500000,0.302202,6.859347,1752.411239,0.039221,0.072001,66529.877922
9.550000,0.302820,6.859552,1762.235280,0.039234,0.072064,66529.878062
9.600000,0.303465,6.859762,1772.058898,0.039246,0.072131,66529.878224
9.650001,0.304159,6.859975,1781.882147,0.039260,0.072208,66529.878431
9.700000,0.304895,6.860194,1791.704823,0.039273,0.072287,66529.878655
9.750000,0.305685,6.860422,1801.526744,0.039286,0.072367,66529.878909
9.800000,0.306536,6.860659,1811.347742,0.039299,0.072474,66529.879164
9.850000,0.307441,6.860905,1821.167652,0.039313,0.072598,66529.879419
9.900001,0.308391,6.861164,1830.986676,0.039326,0.072726,66529.879683
9.950000,0.309378,6.861427,1840.804971,0.039340,0.072853,66529.879990
10.000000,0.310402,6.861697,1850.622574,0.039353,0.072981,66529.880378
10.050000,0.311444,6.861971,1860.439667,0.039368,0.073122,66529.880930
10.100000,0.312486,6.862248,1870.256159,0.039383,0.073281,66529.881643
10.150000,0.313546,6.862535,1880.072209,0.039398,0.073461,66529.882365
10.200000,0.314620,6.862824,1889.887495,0.039414,0.073661,66529.883089
10.250000,0.315688,6.863117,1899.701728,0.039430,0.073881,66529.883820
10.300000,0.316742,6.863417,1909.514864,0.039446,0.074111,66529.884578
10.350000,0.317781,6.863727,1919.327019,0.039462,0.074351,66529.885391
10.400000,0.318805,6.864049,1929.138291,0.039481,0.074596,66529.886292
10.450000,0.319815,6.864388,1938.948490,0.039502,0.074860,66529.887278
10.500000,0.320812,6.864746,1948.757398,0.039525,0.075142,66529.888350
10.550000,0.321796,6.865123,1958.565010,0.039548,0.075443,66529.889507
10.600000,0.322767,6.865521,1968.371223,0.039573,0.075767,66529.890751
10.650000,0.323726,6.865938,1978.176037,0.039599,0.076115,66529.892087
10.700000,0.324674,6.866376,1987.979583,0.039628,0.076486,66529.893515
10.750000,0.325621,6.866830,1997.781864,0.039657,0.076884,66529.895051
10.800000,0.326582,6.867302,2007.582691,0.039689,0.077307,66529.896712
10.850000,0.327577,6.867787,2017.381967,0.039721,0.077755,66529.898559
10.900000,0.328622,6.868290,2027.179810,0.039756,0.078228,66529.900594
10.950000,0.329731,6.868806,2036.975184,0.039790,0.078721,66529.902808
11.000000,0.330927,6.869335,2046.768853,0.039823,0.079242,66529.905248
11.050000,0.332219,6.869872,2056.562644,0.039854,0.079796,66529.907880
11.100000,0.333617,6.870413,2066.357095,0.039883,0.080382,66529.910694
11.150000,0.335126,6.870955,2076.152311,0.039911,0.080976,66529.913721
11.200000,0.336765,6.871506,2085.948017,0.039939,0.081566,66529.917008
11.250000,0.338534,6.872057,2095.744174,0.039966,0.082171,66529.920503
11.300000,0.340443,6.872603,2105.540830,0.039995,0.082794,66529.924239
11.350000,0.342496,6.873144,2115.337991,0.040025,0.083383,66529.928117
11.400000,0.344693,6.873676,2125.135846,0.040058,0.083953,66529.932101
11.450000,0.347026,6.874199,2134.934181,0.040095,0.084534,66529.936125
11.500000,0.349490,6.874722,2144.732943,0.040131,0.085142,66529.940097
11.550000,0.352089,6.875243,2154.532198,0.040167,0.085770,66529.943959
11.600000,0.354803,6.875769,2164.331893,0.040202,0.086386,66529.947626
11.650000,0.357610,6.876301,2174.132223,0.040235,0.086986,66529.951101
11.700000,0.360535,6.876830,2183.933217,0.040269,0.087561,66529.954615
11.750000,0.363570,6.877367,2193.735284,0.040302,0.088116,66529.958222
11.800000,0.366686,6.877912,2203.538598,0.040335,0.088649,66529.961891
11.850000,0.369854,6.878454,2213.343143,0.040368,0.089170,66529.965563
11.900000,0.373041,6.878993,2223.149014,0.040403,0.089682,66529.969179
11.950000,0.376248,6.879524,2232.955974,0.040434,0.090188,66529.972690
12.000000,0.379471,6.880041,2242.764014,0.040462,0.090671,66529.976102
12.050000,0.382709,6.880541,2252.573254,0.040489,0.091130,66529.979416
12.100000,0.385963,6.881023,2262.383818,0.040514,0.091564,66529.982634
12.150000,0.389232,6.881486,2272.195865,0.040537,0.091971,66529.985754
12.200000,0.392518,6.881931,2282.009491,0.040559,0.092350,66529.988773
12.250000,0.395819,6.882357,2291.824681,0.040578,0.092701,66529.991691
12.300000,0.399128,6.882767,2301.641633,0.040596,0.093025,66529.994490
12.350000,0.402432,6.883160,2311.460554,0.040613,0.093321,66529.997154
12.400000,0.405702,6.883539,2321.281512,0.040628,0.093591,66529.999607
12.450000,0.408910,6.883901,2331.104181,0.040642,0.093837,66530.001850
12.500000,0.412031,6.884249,2340.929067,0.040656,0.094062,66530.003903
12.550000,0.415020,6.884582,2350.755848,0.040670,0.094263,66530.005703
12.600000,0.417857,6.884904,2360.583691,0.040684,0.094434,66530.007304
12.650000,0.420528,6.885217,2370.412375,0.040698,0.094577,66530.008727
12.700000,0.423022,6.885520,2380.241855,0.040712,0.094706,66530.009939
12.750000,0.425305,6.885811,2390.072248,0.040727,0.094830,66530.010882
12.800000,0.427389,6.886093,2399.903597,0.040741,0.094937,66530.011632
12.850000,0.429259,6.886370,2409.735979,0.040755,0.095026,66530.012153
12.900000,0.430913,6.886641,2419.569551,0.040767,0.095117,66530.012556
12.950000,0.432364,6.886907,2429.404267,0.040775,0.095207,66530.012872
13.000000,0.433639,6.887170,2439.240219,0.040781,0.095283,66530.013146
13.050000,0.434754,6.887424,2449.077360,0.040786,0.095334,66530.013412
13.100000,0.435711,6.887671,2458.915651,0.040791,0.095365,66530.013679
13.150000,0.436550,6.887907,2468.754899,0.040796,0.095392,66530.013935
13.200000,0.437320,6.888131,2478.595008,0.040803,0.095417,66530.014181
13.250000,0.437992,6.888345,2488.436012,0.040813,0.095442,66530.014383
13.300000,0.438608,6.888545,2498.277594,0.040824,0.095465,66530.014511
13.350000,0.439242,6.888732,2508.119228,0.040836,0.095488,66530.014602
13.400000,0.439986,6.888911,2517.960725,0.040849,0.095509,66530.014694
13.450000,0.440897,6.889081,2527.801914,0.040861,0.095534,66530.014808
13.500000,0.441999,6.889250,2537.642951,0.040874,0.095559,66530.014948
13.550000,0.443305,6.889414,2547.483891,0.040887,0.095595,66530.015089
13.600000,0.444821,6.889571,2557.324630,0.040900,0.095635,66530.015227
13.650000,0.446559,6.889723,2567.164902,0.040915,0.095694,66530.015366
13.700000,0.448518,6.889867,2577.004624,0.040930,0.095788,66530.015529
13.750000,0.450706,6.890006,2586.843837,0.040945,0.095935,66530.015730
13.800000,0.453107,6.890137,2596.682396,0.040960,0.096108,66530.016016
13.850000,0.455763,6.890262,2606.519975,0.040975,0.096330,66530.016376
13.900000,0.458664,6.890381,2616.356424,0.040991,0.096582,66530.016848
13.950000,0.461842,6.890492,2626.191557,0.041007,0.096842,66530.017414
14.000000,0.465296,6.890598,2636.025524,0.041024,0.097134,66530.018081
14.050000,0.469039,6.890697,2645.858220,0.041043,0.097455,66530.018894
14.100000,0.473096,6.890790,2655.689583,0.041063,0.097822,66530.019884
14.150000,0.477456,6.890878,2665.519411,0.041085,0.098232,66530.021065
14.200000,0.482109,6.890961,2675.347559,0.041108,0.098713,66530.022452
14.250000,0.487039,6.891041,2685.173962,0.041134,0.099248,66530.024036
14.300000,0.492258,6.891116,2694.998658,0.041165,0.099807,66530.025762
14.350000,0.497718,6.891188,2704.821800,0.041200,0.100378,66530.027638
14.400000,0.503401,6.891256,2714.643281,0.041242,0.100955,66530.029677
14.450000,0.509287,6.891320,2724.462935,0.041290,0.101536,66530.031895
14.500000,0.515360,6.891380,2734.280779,0.041341,0.102124,66530.034290
14.550000,0.521621,6.891438,2744.096653,0.041397,0.102718,66530.036845
14.600000,0.528055,6.891493,2753.910592,0.041457,0.103318,66530.039571
14.650000,0.534626,6.891548,2763.722510,0.041523,0.103926,66530.042488
14.700000,0.541291,6.891600,2773.532695,0.041596,0.104540,66530.045674
14.750000,0.548023,6.891652,2783.341207,0.041683,0.105152,66530.049133
14.800000,0.554809,6.891701,2793.147794,0.041785,0.105764,66530.052845
14.850000,0.561577,6.891750,2802.952736,0.041899,0.106378,66530.056931
14.900000,0.568305,6.891805,2812.757002,0.042023,0.106990,66530.061424
14.950000,0.574890,6.891868,2822.561022,0.042153,0.107600,66530.066364
15.000000,0.581281,6.891940,2832.364879,0.042291,0.108203,66530.071770
15.050000,0.587446,6.892022,2842.168615,0.042435,0.108802,66530.077630
15.100000,0.593377,6.892112,2851.972170,0.042583,0.109396,66530.083810
15.150000,0.599066,6.892206,2861.775786,0.042731,0.109986,66530.090245
15.200000,0.604502,6.892306,2871.579549,0.042878,0.110569,66530.096857
15.250000,0.609691,6.892409,2881.383682,0.043026,0.111142,66530.103546
15.300000,0.614624,6.892515,2891.188051,0.043177,0.111706,66530.110263
15.350000,0.619327,6.892624,2900.992797,0.043335,0.112265,66530.116904
15.400000,0.623749,6.892735,2910.798128,0.043495,0.112819,66530.123489
15.450000,0.627907,6.892848,2920.604135,0.043660,0.113369,66530.129956
15.500000,0.631767,6.892962,2930.411005,0.043824,0.113918,66530.136337
15.550000,0.635336,6.893078,2940.218829,0.043987,0.114461,66530.142618
15.600000,0.638602,6.893196,2950.027874,0.044148,0.115000,66530.148731
15.650000,0.641544,6.893317,2959.838021,0.044307,0.115535,66530.154633
15.700000,0.644177,6.893437,2969.649272,0.044464,0.116067,66530.160310
15.750000,0.646514,6.893555,2979.461753,0.044619,0.116603,66530.165749
15.800000,0.648582,6.893670,2989.275510,0.044769,0.117145,66530.170964
15.850000,0.650367,6.893784,2999.090625,0.044914,0.117691,66530.176030
15.900000,0.651934,6.893894,3008.906983,0.045053,0.118240,66530.180938
15.950000,0.653309,6.894003,3018.724709,0.045185,0.118792,66530.185674
16.000000,0.654521,6.894111,3028.543971,0.045311,0.119347,66530.190218
16.050000,0.655595,6.894216,3038.364797,0.045434,0.119904,66530.194575
16.100000,0.656530,6.894320,3048.187433,0.045551,0.120467,66530.198770
16.150000,0.657348,6.894420,3058.011989,0.045664,0.121034,66530.202793
16.200000,0.658109,6.894517,3067.838589,0.045770,0.121611,66530.206622
16.250000,0.658884,6.894611,3077.667089,0.045869,0.122198,66530.210177
16.300000,0.659685,6.894703,3087.497423,0.045952,0.122799,66530.213461
16.350000,0.660515,6.894793,3097.330045,0.046018,0.123410,66530.216493
16.400000,0.661403,6.894882,3107.164609,0.046072,0.124033,66530.219163
16.450000,0.662289,6.894964,3117.000744,0.046116,0.124658,66530.221435
16.500000,0.663207,6.895039,3126.838308,0.046153,0.125285,66530.223274
16.550000,0.664164,6.895106,3136.677226,0.046183,0.125909,66530.224669
16.600000,0.665168,6.895161,3146.517336,0.046208,0.126529,66530.225644
16.650000,0.666217,6.895209,3156.358723,0.046229,0.127137,66530.226343
16.700000,0.667312,6.895257,3166.201086,0.046251,0.127739,66530.226828
16.750000,0.668455,6.895306,3176.044567,0.046271,0.128321,66530.227160
16.800000,0.669644,6.895356,3185.888806,0.046291,0.128866,66530.227399
16.850000,0.670881,6.895408,3195.733839,0.046308,0.129354,66530.227572
16.900000,0.672161,6.895463,3205.579590,0.046320,0.129813,66530.227718
16.950000,0.673492,6.895522,3215.426216,0.046330,0.130221,66530.227832
17.000000,0.674873,6.895584,3225.273694,0.046337,0.130597,66530.227928
17.050000,0.676307,6.895651,3235.121982,0.046343,0.130967,66530.228002
17.100000,0.677794,6.895721,3244.971054,0.046350,0.131309,66530.228058
17.150000,0.679336,6.895794,3254.820528,0.046356,0.131626,66530.228109
17.200000,0.680936,6.895871,3264.670542,0.046362,0.131902,66530.228161
17.250000,0.682592,6.895953,3274.521340,0.046368,0.132141,66530.228214
17.300000,0.684303,6.896039,3284.372858,0.046374,0.132312,66530.228268
17.350000,0.686066,6.896131,3294.225155,0.046380,0.132433,66530.228322
17.400000,0.687880,6.896227,3304.078156,0.046385,0.132532,66530.228370
17.450000,0.689733,6.896328,3313.931903,0.046390,0.132622,66530.228413
17.500000,0.691614,6.896435,3323.786294,0.046394,0.132707,66530.228455
17.550000,0.693517,6.896548,3333.640964,0.046397,0.132788,66530.228496
17.600000,0.695433,6.896666,3343.495829,0.046399,0.132865,66530.228537
17.650000,0.697359,6.896789,3353.350691,0.046402,0.132936,66530.228575
17.700000,0.699288,6.896920,3363.205628,0.046407,0.133002,66530.228612
17.750000,0.701190,6.897061,3373.060974,0.046415,0.133062,66530.228649
17.800000,0.703024,6.897213,3382.917024,0.046427,0.133115,66530.228689
17.850000,0.704787,6.897370,3392.775534,0.046451,0.133159,66530.228741
17.900000,0.706477,6.897532,3402.639105,0.046487,0.133197,66530.228820
17.950000,0.708128,6.897698,3412.514894,0.046566,0.133229,66530.228991
18.000000,0.709788,6.897866,3422.407133,0.046676,0.133281,66530.229243
18.050000,0.711465,6.898030,3432.321006,0.046854,0.133358,66530.229563
18.100000,0.713171,6.898189,3442.261188,0.047097,0.133449,66530.229903
18.150000,0.714906,6.898342,3452.231602,0.047351,0.133585,66530.230243
18.200000,0.716652,6.898491,3462.234516,0.047609,0.133831,66530.230620
18.250000,0.718414,6.898634,3472.272538,0.047896,0.134372,66530.231013
18.300000,0.720222,6.898772,3482.346113,0.048283,0.135448,66530.231417
18.350000,0.722130,6.898907,3492.455318,0.048865,0.137641,66530.231962
18.400000,0.724221,6.899044,3502.597580,0.049832,0.141799,66530.232917
18.450000,0.726583,6.899179,3512.769052,0.051446,0.148658,66530.234480
18.500000,0.729261,6.899310,3522.962985,0.054277,0.158972,66530.236648
18.550000,0.732356,6.899436,3533.173551,0.058735,0.172748,66530.239392
18.600000,0.735938,6.899562,3543.394360,0.065281,0.189608,66530.242608
18.650000,0.740111,6.899702,3553.621760,0.073869,0.209079,66530.246377
18.700000,0.744972,6.899880,3563.851697,0.084993,0.230367,66530.250548
18.750000,0.750603,6.900134,3574.081885,0.098795,0.253534,66530.255215
18.800000,0.757078,6.900518,3584.309705,0.115831,0.278213,66530.260312
18.850000,0.764516,6.901097,3594.533073,0.136094,0.304293,66530.265972
18.900000,0.773050,6.901949,3604.750943,0.159692,0.331759,66530.272293
18.950000,0.782883,6.903175,3614.962823,0.186718,0.360521,66530.279345
19.000000,0.794184,6.904882,3625.167623,0.217212,0.390583,66530.287167
19.050000,0.807140,6.907213,3635.365129,0.251059,0.422059,66530.295832
19.100000,0.821950,6.910292,3645.555116,0.288326,0.454922,66530.305317
19.150000,0.838813,6.914280,3655.737577,0.329047,0.489195,66530.315598
19.200000,0.857925,6.919355,3665.912564,0.373279,0.524983,66530.326678
19.250000,0.879493,6.925729,3676.079510,0.421086,0.562313,66530.338586
19.300000,0.903748,6.933672,3686.237187,0.472657,0.601228,66530.351308
19.350000,0.930979,6.943395,3696.384848,0.528026,0.641716,66530.364792
19.400000,0.961495,6.955036,3706.518320,0.587568,0.683682,66530.378906
19.450000,0.995598,6.968881,3716.631233,0.651315,0.726930,66530.393582
19.500000,1.033278,6.985164,3726.709562,0.719780,0.771423,66530.408552
19.550000,1.074790,7.004249,3736.744534,0.792787,0.816990,66530.423910
19.600000,1.120350,7.026314,3746.725411,0.870741,0.863623,66530.439719
19.650000,1.170128,7.051617,3756.642872,0.953615,0.911534,66530.456317
19.700000,1.224428,7.080393,3766.488867,1.040728,0.960436,66530.474132
19.750000,1.283718,7.112993,3776.258750,1.131227,1.010012,66530.493550
19.800000,1.348331,7.149785,3785.947645,1.224616,1.059612,66530.514495
19.850000,1.418336,7.191218,3795.554469,1.320225,1.108728,66530.536468
19.900000,1.493666,7.237843,3805.079314,1.417534,1.156454,66530.558820
19.950000,1.574153,7.290208,3814.526831,1.515830,1.201836,66530.580890
20.000000,1.659633,7.348676,3823.903617,1.614372,1.244222,66530.602321
20.050000,1.750214,7.413637,3833.221879,1.711843,1.283049,66530.623139
20.100000,1.845749,7.485168,3842.492464,1.807550,1.318383,66530.643382
20.150000,1.946258,7.563473,3851.727482,1.900789,1.350582,66530.663214
20.200000,2.051619,7.648574,3860.933617,1.991695,1.380094,66530.682505
20.250000,2.161830,7.740597,3870.119027,2.079593,1.407699,66530.701517
20.300000,2.276907,7.839561,3879.287743,2.164352,1.433368,66530.720071
20.350000,2.396962,7.945430,3888.444190,2.245344,1.457524,66530.738278
20.400000,2.521886,8.058154,3897.592030,2.322643,1.480324,66530.755908
20.450000,2.651560,8.177682,3906.732728,2.396184,1.501820,66530.772838
20.500000,2.785658,8.303891,3915.866381,2.465924,1.522159,66530.788983
20.550000,2.924008,8.436695,3924.994125,2.531874,1.541356,66530.804308
20.600000,3.066460,8.575914,3934.116225,2.594216,1.559290,66530.818745
20.650000,3.212873,8.721480,3943.233642,2.652936,1.576004,66530.832333
20.700000,3.363132,8.873213,3952.346230,2.708060,1.591508,66530.845112
20.750000,3.517154,9.030930,3961.453794,2.759589,1.605713,66530.857088
20.800000,3.674774,9.194422,3970.556413,2.807528,1.618646,66530.868234
20.850000,3.835789,9.363403,3979.654729,2.851749,1.630300,66530.878576
20.900000,3.999936,9.537668,3988.749131,2.892277,1.640735,66530.888167
20.950000,4.167011,9.717131,3997.842743,2.928808,1.650070,66530.897132
21.000000,4.336859,9.901473,4006.939034,2.961380,1.658479,66530.905522
21.050000,4.509587,10.090441,4016.044709,2.989572,1.666033,66530.913516
21.100000,4.685011,10.283600,4025.163467,3.013632,1.672869,66530.921044
21.150000,4.863057,10.480737,4034.300659,3.033246,1.679017,66530.928068
21.200000,5.043713,10.681634,4043.461333,3.048525,1.684298,66530.934340
21.250000,5.226766,10.886034,4052.649897,3.060170,1.688951,66530.939507
21.300000,5.411947,11.093595,4061.868319,3.068960,1.693149,66530.943219
21.350000,5.599060,11.303949,4071.118087,3.075328,1.697277,66530.945584
21.400000,5.788141,11.516588,4080.397206,3.079788,1.701502,66530.947050
21.450000,5.979355,11.730836,4089.702423,3.082672,1.706048,66530.948046
21.500000,6.172912,11.945995,4099.028199,3.084368,1.710950,66530.948868
21.550000,6.368977,12.161602,4108.369113,3.085325,1.716069,66530.949622
21.600000,6.567489,12.377221,4117.718168,3.086312,1.721221,66530.950300
21.650000,6.768699,12.592544,4127.068256,3.087744,1.726323,66530.950902
21.700000,6.972682,12.807201,4136.413630,3.090182,1.731550,66530.951396
21.750000,7.179565,13.020762,4145.749289,3.093907,1.736974,66530.951821
21.800000,7.389271,13.232743,4155.071168,3.099393,1.742729,66530.952106
21.850000,7.602036,13.442675,4164.377783,3.107218,1.748728,66530.952314
21.900000,7.817794,13.650328,4173.667760,3.118074,1.754922,66530.952425
21.950000,8.036724,13.855253,4182.939621,3.131969,1.761360,66530.952516
22.000000,8.258870,14.057089,4192.192088,3.148929,1.767960,66530.952686
22.050000,8.484571,14.255580,4201.425900,3.168890,1.774570,66530.953084
22.100000,8.713750,14.450485,4210.641160,3.191697,1.781129,66530.953945
22.150000,8.946460,14.641515,4219.838685,3.217138,1.787615,66530.955529
22.200000,9.182476,14.828352,4229.019099,3.245295,1.794050,66530.958065
22.250000,9.421678,15.010771,4238.185004,3.276652,1.800462,66530.961483
22.300000,9.663674,15.188517,4247.337316,3.311293,1.806911,66530.965713
22.350000,9.908408,15.361201,4256.477511,3.349380,1.813417,66530.970472
22.400000,10.155656,15.528468,4265.607126,3.391207,1.820090,66530.975669
22.450000,10.405271,15.690091,4274.727817,3.437325,1.826985,66530.981191
22.500000,10.656507,15.845786,4283.839702,3.487726,1.834240,66530.987209
22.550000,10.909012,15.995352,4292.943973,3.543061,1.842095,66530.993607
22.600000,11.162266,16.138639,4302.042689,3.603536,1.850788,66531.000444
22.650000,11.416001,16.275572,4311.139238,3.669341,1.860611,66531.007640
22.700000,11.669879,16.406049,4320.235264,3.740122,1.871852,66531.015197
22.750000,11.923406,16.529872,4329.331472,3.815507,1.884804,66531.023231
22.800000,12.176236,16.646925,4338.428497,3.895502,1.899631,66531.031702
22.850000,12.427900,16.757061,4347.528839,3.980066,1.916316,66531.040613
22.900000,12.677852,16.860186,4356.634436,4.069233,1.935658,66531.049947
22.950000,12.925432,16.956341,4365.750290,4.163271,1.958039,66531.059739
23.000000,13.170209,17.045598,4374.883037,4.261828,1.984065,66531.070055
23.050000,13.411592,17.128108,4384.040220,4.364282,2.014458,66531.080987
23.100000,13.649092,17.203984,4393.228163,4.469508,2.049683,66531.092550
23.150000,13.882248,17.273300,4402.449936,4.576129,2.089949,66531.104826
23.200000,14.110430,17.336335,4411.710329,4.683341,2.135045,66531.117713
23.250000,14.333099,17.393290,4421.009566,4.790063,2.185141,66531.131318
23.300000,14.549861,17.444601,4430.352050,4.895724,2.240078,66531.145531
23.350000,14.760441,17.490630,4439.738459,4.999573,2.300023,66531.160323
23.400000,14.964106,17.531805,4449.168558,5.100742,2.364708,66531.175711
23.450000,15.160464,17.568364,4458.641631,5.198333,2.434166,66531.191617
23.500000,15.349077,17.600742,4468.158017,5.292397,2.508754,66531.207898
23.550000,15.529698,17.629279,4477.719992,5.382965,2.588393,66531.224235
23.600000,15.701880,17.654253,4487.327639,5.470173,2.672735,66531.240326
23.650000,15.865590,17.675890,4496.981251,5.554256,2.761378,66531.255839
23.700000,16.020551,17.694502,4506.679273,5.635509,2.853396,66531.270495
23.750000,16.166832,17.710347,4516.419701,5.713872,2.948233,66531.284096
23.800000,16.304348,17.723663,4526.197826,5.788790,3.045546,66531.296724
23.850000,16.433336,17.734695,4536.012616,5.860206,3.144997,66531.308466
23.900000,16.553729,17.743781,4545.862319,5.928001,3.246412,66531.319620
23.950000,16.665705,17.751231,4555.744817,5.991900,3.349250,66531.330294
24.000000,16.769355,17.757248,4565.657169,6.051371,3.453272,66531.340634
24.050000,16.865355,17.762059,4575.597778,6.106468,3.557998,66531.350447
24.100000,16.953870,17.765860,4585.564723,6.156637,3.662791,66531.359876
24.150000,17.035300,17.768809,4595.555179,6.201768,3.767112,66531.368857
24.200000,17.109819,17.771032,4605.564530,6.241779,3.870442,66531.377493
24.250000,17.177594,17.772666,4615.590493,6.277072,3.972276,66531.385798
24.300000,17.238956,17.773855,4625.631089,6.308068,4.072219,66531.393629
24.350000,17.294149,17.774719,4635.685251,6.334846,4.170035,66531.401039
24.400000,17.343459,17.775373,4645.749491,6.357529,4.265827,66531.408031
24.450000,17.387292,17.775898,4655.823045,6.376170,4.358374,66531.414634
24.500000,17.426180,17.776331,4665.903796,6.390603,4.447249,66531.420802
24.550000,17.460398,17.776718,4675.988670,6.401216,4.531724,66531.426475
24.600000,17.490397,17.777080,4686.073669,6.408567,4.610974,66531.431571
24.650000,17.516575,17.777435,4696.155154,6.413494,4.684613,66531.436089
24.700000,17.539289,17.777793,4706.231209,6.416872,4.752524,66531.439964
24.750000,17.558939,17.778154,4716.298896,6.419115,4.815133,66531.443293
24.800000,17.575877,17.778518,4726.358018,6.420675,4.872347,66531.445997
24.850000,17.590371,17.778885,4736.406174,6.421728,4.924482,66531.448174
24.900000,17.602664,17.779255,4746.442681,6.422506,4.971457,66531.449854
24.950000,17.613123,17.779626,4756.467508,6.423169,5.013699,66531.451038
25.000000,17.622003,17.779994,4766.480776,6.423810,5.051285,66531.451793
25.050000,17.629541,17.780361,4776.482087,6.424423,5.083921,66531.452233
25.100000,17.635916,17.780726,4786.469990,6.425006,5.111812,66531.452532
25.150000,17.641343,17.781086,4796.444170,6.425546,5.135418,66531.452795
25.200000,17.645937,17.781436,4806.404252,6.426030,5.155198,66531.453057
25.250000,17.649871,17.781773,4816.350938,6.426442,5.172010,66531.453300
25.300000,17.653246,17.782094,4826.285107,6.426788,5.186320,66531.453474
25.350000,17.656182,17.782394,4836.209088,6.427115,5.198384,66531.453597
25.400000,17.658733,17.782667,4846.123040,6.427430,5.208447,66531.453683
25.450000,17.660990,17.782922,4856.027350,6.427737,5.216617,66531.453768
25.500000,17.662995,17.783166,4865.922742,6.428043,5.223227,66531.453853
25.550000,17.664801,17.783397,4875.810709,6.428339,5.228398,66531.453928
25.600000,17.666390,17.783617,4885.691981,6.428617,5.232376,66531.454004
25.650000,17.667817,17.783827,4895.567275,6.428845,5.235445,66531.454073
25.700000,17.669100,17.784028,4905.437765,6.429011,5.237786,66531.454142
25.750000,17.670274,17.784213,4915.305382,6.429101,5.239538,66531.454200
25.800000,17.671378,17.784383,4925.170761,6.429144,5.240833,66531.454240
25.850000,17.672426,17.784538,4935.034747,6.429170,5.241754,66531.454280
25.900000,17.673441,17.784683,4944.897565,6.429187,5.242347,66531.454317
25.950000,17.674441,17.784823,4954.760534,6.429200,5.242595,66531.454349
26.000000,17.675432,17.784961,4964.623441,6.429212,5.242725,66531.454371
26.050000,17.676409,17.785093,4974.485932,6.429223,5.242780,66531.454391
26.100000,17.677387,17.785225,4984.347755,6.429235,5.242804,66531.454410
26.150000,17.678366,17.785356,4994.208751,6.429246,5.242824,66531.454431
26.200000,17.679342,17.785488,5004.068970,6.429258,5.242843,66531.454453
26.250000,17.680315,17.785623,5013.928658,6.429269,5.242862,66531.454476
26.300000,17.681287,17.785760,5023.788131,6.429281,5.242881,66531.454502
26.350000,17.682258,17.785898,5033.647246,6.429293,5.242901,66531.454529
26.400000,17.683231,17.786038,5043.505838,6.429305,5.242921,66531.454559
26.450000,17.684208,17.786178,5053.364076,6.429318,5.242940,66531.454590
26.500000,17.685188,17.786320,5063.221907,6.429331,5.242958,66531.454624
26.550000,17.686170,17.786463,5073.079372,6.429344,5.242975,66531.454661
26.600000,17.687154,17.786608,5082.936391,6.429358,5.242992,66531.454702
26.650000,17.688140,17.786755,5092.793006,6.429372,5.243008,66531.454746
26.700000,17.689126,17.786902,5102.648975,6.429387,5.243023,66531.454794
26.750000,17.690115,17.787050,5112.504034,6.429402,5.243037,66531.454845
26.800000,17.691107,17.787199,5122.358179,6.429417,5.243052,66531.454898
26.850000,17.692102,17.787348,5132.211549,6.429431,5.243067,66531.454952
26.900000,17.693102,17.787495,5142.064122,6.429445,5.243081,66531.455008
26.950000,17.694105,17.787642,5151.916142,6.429459,5.243095,66531.455066
27.000000,17.695111,17.787790,5161.767832,6.429472,5.243109,66531.455127
27.050000,17.696119,17.787936,5171.619315,6.429484,5.243122,66531.455190
27.100000,17.697130,17.788083,5181.470507,6.429496,5.243135,66531.455256
27.150000,17.698143,17.788229,5191.321350,6.429508,5.243146,66531.455324
27.200000,17.699160,17.788375,5201.171720,6.429519,5.243158,66531.455394
27.250000,17.700178,17.788519,5211.021442,6.429530,5.243168,66531.455465
27.300000,17.701199,17.788663,5220.870473,6.429539,5.243179,66531.455537
27.350000,17.702223,17.788806,5230.718849,6.429548,5.243189,66531.455610
27.400000,17.703250,17.788949,5240.566591,6.429557,5.243200,66531.455684
27.450000,17.704282,17.789090,5250.413698,6.429565,5.243210,66531.455757
27.500000,17.705318,17.789231,5260.260349,6.429574,5.243220,66531.455830
27.550000,17.706361,17.789371,5270.106502,6.429582,5.243230,66531.455903
27.600000,17.707409,17.789511,5279.952155,6.429592,5.243241,66531.455977
27.650000,17.708462,17.789651,5289.797292,6.429601,5.243251,66531.456050
27.700000,17.709519,17.789790,5299.642036,6.429610,5.243261,66531.456124
27.750000,17.710579,17.789929,5309.486348,6.429620,5.243271,66531.456197
27.800000,17.711642,17.790067,5319.330144,6.429630,5.243281,66531.456270
27.850000,17.712708,17.790203,5329.173368,6.429641,5.243292,66531.456343
27.900000,17.713775,17.790338,5339.016183,6.429651,5.243302,66531.456415
27.950000,17.714842,17.790472,5348.858675,6.429662,5.243312,66531.456486
28.000000,17.715907,17.790605,5358.700785,6.429674,5.243323,66531.456557
28.050000,17.716972,17.790736,5368.542490,6.429686,5.243333,66531.456626
28.100000,17.718036,17.790865,5378.383794,6.429700,5.243344,66531.456693
28.150000,17.719099,17.790993,5388.224795,6.429715,5.243354,66531.456758
28.200000,17.720163,17.791119,5398.065370,6.429730,5.243365,66531.456820
28.250000,17.721226,17.791243,5407.905623,6.429747,5.243375,66531.456879
28.300000,17.722288,17.791366,5417.745755,6.429764,5.243386,66531.456936
28.350000,17.723348,17.791488,5427.585789,6.429783,5.243396,66531.456991
28.400000,17.724406,17.791609,5437.425626,6.429802,5.243406,66531.457045
28.450000,17.725461,17.791730,5447.265231,6.429823,5.243415,66531.457099
28.500000,17.726514,17.791850,5457.104557,6.429844,5.243425,66531.457151
28.550000,17.727566,17.791970,5466.943624,6.429867,5.243433,66531.457200
28.600000,17.728617,17.792089,5476.782370,6.429891,5.243442,66531.457247
28.650000,17.729669,17.792208,5486.620693,6.429915,5.243450,66531.457291
28.700000,17.730719,17.792325,5496.458796,6.429940,5.243457,66531.457333
28.750000,17.731767,17.792442,5506.296924,6.429964,5.243465,66531.457372
28.800000,17.732814,17.792559,5516.135054,6.429988,5.243472,66531.457411
28.850000,17.733859,17.792676,5525.973249,6.430013,5.243479,66531.457448
28.900000,17.734900,17.792792,5535.811755,6.430037,5.243486,66531.457485
28.950000,17.735935,17.792906,5545.650655,6.430061,5.243492,66531.457523
29.000000,17.736963,17.793020,5555.489971,6.430085,5.243499,66531.457562
29.050000,17.737984,17.793133,5565.329585,6.430108,5.243506,66531.457601
29.100000,17.738995,17.793245,5575.169463,6.430130,5.243513,66531.457641
29.150000,17.739997,17.793355,5585.009745,6.430151,5.243521,66531.457681
29.200000,17.740989,17.793464,5594.850469,6.430172,5.243528,66531.457723
29.250000,17.741973,17.793571,5604.691636,6.430192,5.243535,66531.457765
29.300000,17.742950,17.793677,5614.533243,6.430211,5.243542,66531.457807
29.350000,17.743918,17.793782,5624.375515,6.430229,5.243548,66531.457850
29.400000,17.744877,17.793886,5634.218332,6.430246,5.243554,66531.457893
29.450000,17.745828,17.793989,5644.061552,6.430263,5.243560,66531.457937
29.500000,17.746773,17.794092,5653.905312,6.430278,5.243565,66531.457982
29.550000,17.747711,17.794193,5663.749589,6.430293,5.243571,66531.458027
29.600000,17.748642,17.794293,5673.594370,6.430308,5.243578,66531.458072
29.650000,17.749562,17.794392,5683.439559,6.430321,5.243589,66531.458117
29.700000,17.750472,17.794488,5693.285076,6.430333,5.243604,66531.458161
29.750000,17.751370,17.794583,5703.131186,6.430344,5.243623,66531.458204
29.800000,17.752255,17.794676,5712.977952,6.430354,5.243650,66531.458247
29.850000,17.753126,17.794766,5722.825397,6.430364,5.243688,66531.458288
29.900000,17.753985,17.794853,5732.673696,6.430374,5.243744,66531.458329
29.950000,17.754840,17.794936,5742.522837,6.430386,5.243840,66531.458390
30.000000,17.755683,17.795016,5752.372830,6.430401,5.244005,66531.458603
30.050000,17.756516,17.795091,5762.223976,6.430422,5.244273,66531.459129
30.100000,17.757335,17.795163,5772.075774,6.430454,5.244682,66531.460462
30.150000,17.758131,17.795231,5781.928309,6.430499,5.245243,66531.463554
30.200000,17.758899,17.795294,5791.781631,6.430561,5.245954,66531.469827
30.250000,17.759635,17.795355,5801.635251,6.430644,5.246828,66531.480923
30.300000,17.760344,17.795412,5811.488623,6.430758,5.247886,66531.498690
30.350000,17.761020,17.795467,5821.342055,6.430913,5.249138,66531.526650
30.400000,17.761666,17.795519,5831.195787,6.431124,5.250586,66531.568535
30.450000,17.762289,17.795572,5841.048448,6.431411,5.252223,66531.629683
30.500000,17.762886,17.795629,5850.899079,6.431802,5.254039,66531.716799
30.550000,17.763457,17.795686,5860.747702,6.432307,5.256017,66531.837040
30.600000,17.763999,17.795745,5870.594553,6.432951,5.258174,66531.996256
30.650000,17.764516,17.795811,5880.439361,6.433745,5.260554,66532.201741
30.700000,17.765013,17.795883,5890.281533,6.434731,5.263101,66532.465668
30.750000,17.765481,17.795960,5900.121813,6.435922,5.265792,66532.805542
30.800000,17.765922,17.796039,5909.960631,6.437365,5.268604,66533.235543
30.850000,17.766333,17.796123,5919.797510,6.439094,5.271528,66533.769029
30.900000,17.766721,17.796211,5929.631862,6.441123,5.274557,66534.423013
30.950000,17.767088,17.796300,5939.463844,6.443460,5.277676,66535.211453
31.000000,17.767443,17.796389,5949.294161,6.446107,5.280871,66536.148206
31.050000,17.767787,17.796479,5959.122736,6.449062,5.284141,66537.246275
31.100000,17.768118,17.796570,5968.949919,6.452307,5.287466,66538.519838
31.150000,17.768440,17.796667,5978.775681,6.455828,5.290834,66539.986213
31.200000,17.768770,17.796768,5988.600509,6.459630,5.294233,66541.660464
31.250000,17.769113,17.796872,5998.424574,6.463731,5.297660,66543.554724
31.300000,17.769467,17.796985,6008.247734,6.468139,5.301107,66545.675515
31.350000,17.769824,17.797109,6018.069853,6.472850,5.304563,66548.033951
31.400000,17.770194,17.797246,6027.890544,6.477858,5.308008,66550.649647
31.450000,17.770587,17.797394,6037.709668,6.483163,5.311425,66553.538619
31.500000,17.771019,17.797550,6047.527248,6.488744,5.314794,66556.708693
31.550000,17.771481,17.797717,6057.343570,6.494573,5.318102,66560.160684
31.600000,17.772008,17.797886,6067.158063,6.500631,5.321332,66563.900102
31.650000,17.772596,17.798059,6076.971772,6.506884,5.324481,66567.918927
31.700000,17.773241,17.798236,6086.784411,6.513308,5.327553,66572.205231
31.750000,17.773934,17.798419,6096.595934,6.519895,5.330558,66576.747994
31.800000,17.774667,17.798607,6106.406989,6.526627,5.333487,66581.539937
31.850000,17.775472,17.798792,6116.218389,6.533455,5.336340,66586.571840
31.900000,17.776336,17.798978,6126.029726,6.540350,5.339123,66591.820789
31.950000,17.777272,17.799162,6135.840390,6.547268,5.341845,66597.266517
32.000000,17.778301,17.799339,6145.652739,6.554164,5.344511,66602.883862
32.050000,17.779424,17.799509,6155.468760,6.560990,5.347121,66608.645087
32.100000,17.780635,17.799673,6165.288390,6.567730,5.349700,66614.524118
32.150000,17.781911,17.799832,6175.112536,6.574333,5.352305,66620.503075
32.200000,17.783277,17.799981,6184.942007,6.580784,5.354938,66626.560360
32.250000,17.784757,17.800119,6194.777679,6.587019,5.357606,66632.662695
32.300000,17.786315,17.800251,6204.618069,6.593029,5.360311,66638.767343
32.350000,17.787922,17.800376,6214.462414,6.598757,5.363052,66644.843859
32.400000,17.789605,17.800493,6224.311721,6.604167,5.365837,66650.866000
32.450000,17.791321,17.800604,6234.166609,6.609250,5.368664,66656.802595
32.500000,17.793062,17.800711,6244.027001,6.614001,5.371535,66662.630447
32.550000,17.794805,17.800819,6253.891670,6.618426,5.374451,66668.328028
32.600000,17.796548,17.800924,6263.760434,6.622530,5.377419,66673.876452
32.650000,17.798302,17.801027,6273.632777,6.626338,5.380442,66679.256141
32.700000,17.800063,17.801123,6283.508869,6.629865,5.383519,66684.444033
32.750000,17.801800,17.801214,6293.387779,6.633111,5.386654,66689.421801
32.800000,17.803505,17.801301,6303.269286,6.636063,5.389845,66694.176063
32.850000,17.805188,17.801380,6313.153084,6.638719,5.393090,66698.701325
32.900000,17.806870,17.801447,6323.039364,6.641085,5.396387,66702.986699
32.950000,17.808535,17.801502,6332.928672,6.643172,5.399726,66707.011357
33.000000,17.810165,17.801546,6342.820864,6.644984,5.403076,66710.760034
33.050000,17.811734,17.801584,6352.715755,6.646541,5.406405,66714.226896
33.100000,17.813264,17.801612,6362.612921,6.647870,5.409686,66717.413472
33.150000,17.814702,17.801639,6372.512545,6.648988,5.412891,66720.316676
33.200000,17.816063,17.801664,6382.413992,6.649924,5.415984,66722.946830
33.250000,17.817357,17.801686,6392.317482,6.650695,5.418943,66725.317117
33.300000,17.818602,17.801703,6402.223108,6.651311,5.421770,66727.438790
33.350000,17.819807,17.801717,6412.130680,6.651784,5.424471,66729.319017
33.400000,17.820933,17.801733,6422.039683,6.652145,5.427028,66730.966753
33.450000,17.822000,17.801752,6431.950421,6.652411,5.429428,66732.401636
33.500000,17.822993,17.801775,6441.863279,6.652604,5.431668,66733.640309
33.550000,17.823889,17.801800,6451.777144,6.652742,5.433760,66734.701673
33.600000,17.824691,17.801828,6461.690809,6.652839,5.435722,66735.605124
33.650000,17.825407,17.801860,6471.604324,6.652901,5.437552,66736.367832
33.700000,17.826064,17.801896,6481.515108,6.652943,5.439175,66737.000887
33.750000,17.826636,17.801935,6491.422536,6.652970,5.440558,66737.517018
33.800000,17.827099,17.801979,6501.326384,6.652993,5.441757,66737.933904
33.850000,17.827494,17.802028,6511.227151,6.653013,5.442803,66738.271833
33.900000,17.827842,17.802082,6521.125144,6.653034,5.443723,66738.543917
33.950000,17.828124,17.802141,6531.019853,6.653055,5.444522,66738.760566
34.000000,17.828370,17.802206,6540.911067,6.653077,5.445213,66738.932889
34.050000,17.828584,17.802275,6550.798821,6.653098,5.445812,66739.068418
34.100000,17.828778,17.802349,6560.683884,6.653119,5.446329,66739.173566
34.150000,17.828950,17.802426,6570.566374,6.653140,5.446763,66739.253535
34.200000,17.829098,17.802508,6580.446500,6.653161,5.447126,66739.313217
34.250000,17.829221,17.802594,6590.324362,6.653184,5.447429,66739.357710
34.300000,17.829333,17.802685,6600.200715,6.653207,5.447672,66739.390589
34.350000,17.829435,17.802780,6610.075629,6.653230,5.447864,66739.414294
34.400000,17.829525,17.802881,6619.949508,6.653253,5.448010,66739.429992
34.450000,17.829594,17.802988,6629.822293,6.653277,5.448117,66739.439384
34.500000,17.829647,17.803100,6639.693761,6.653300,5.448197,66739.445029
34.550000,17.829690,17.803217,6649.563877,6.653324,5.448270,66739.448460
34.600000,17.829725,17.803340,6659.433016,6.653347,5.448341,66739.450522
34.650000,17.829750,17.803468,6669.301325,6.653372,5.448410,66739.451697
34.700000,17.829773,17.803601,6679.168913,6.653396,5.448477,66739.452448
34.750000,17.829793,17.803738,6689.035776,6.653422,5.448542,66739.452880
34.800000,17.829812,17.803879,6698.901916,6.653449,5.448605,66739.453078
34.850000,17.829827,17.804026,6708.767358,6.653475,5.448668,66739.453161
34.900000,17.829840,17.804179,6718.632170,6.653501,5.448728,66739.453233
34.950000,17.829853,17.804333,6728.496696,6.653527,5.448785,66739.453309
35.000000,17.829866,17.804489,6738.360854,6.653553,5.448841,66739.453388
35.050000,17.829878,17.804646,6748.224648,6.653578,5.448895,66739.453470
35.100000,17.829891,17.804806,6758.088013,6.653604,5.448948,66739.453556
35.150000,17.829904,17.804967,6767.950965,6.653628,5.448998,66739.453646
35.200000,17.829916,17.805131,6777.813455,6.653651,5.449048,66739.453740
35.250000,17.829929,17.805294,6787.676880,6.653675,5.449096,66739.453838
35.300000,17.829940,17.805457,6797.541347,6.653698,5.449142,66739.453938
35.350000,17.829952,17.805620,6807.406635,6.653723,5.449185,66739.454042
35.400000,17.829963,17.805783,6817.273090,6.653747,5.449223,66739.454148
35.450000,17.829975,17.805945,6827.140673,6.653771,5.449256,66739.454255
35.500000,17.829987,17.806106,6837.009370,6.653795,5.449285,66739.454365
35.550000,17.829998,17.806267,6846.879178,6.653819,5.449310,66739.454476
35.600000,17.830010,17.806427,6856.749938,6.653842,5.449332,66739.454587
35.650000,17.830022,17.806585,6866.621384,6.653865,5.449350,66739.454698
35.700000,17.830034,17.806743,6876.493517,6.653888,5.449366,66739.454806
35.750000,17.830045,17.806900,6886.366455,6.653911,5.449380,66739.454914
35.800000,17.830057,17.807057,6896.239931,6.653934,5.449392,66739.455020
35.850000,17.830068,17.807213,6906.113624,6.653956,5.449403,66739.455125
35.900000,17.830079,17.807369,6915.987579,6.653979,5.449413,66739.455230
35.950000,17.830091,17.807523,6925.861674,6.654000,5.449422,66739.455339
36.000000,17.830105,17.807676,6935.735784,6.654020,5.449432,66739.455496
36.050000,17.830121,17.807824,6945.609912,6.654040,5.449443,66739.455926
36.100000,17.830139,17.807968,6955.484222,6.654058,5.449457,66739.457317
36.150000,17.830163,17.808107,6965.359010,6.654075,5.449474,66739.460692
36.200000,17.830210,17.808241,6975.234359,6.654092,5.449503,66739.467156
36.250000,17.830286,17.808370,6985.110376,6.654109,5.449543,66739.479713
36.300000,17.830404,17.808497,6994.987395,6.654128,5.449590,66739.503398
36.350000,17.830557,17.808623,7004.865322,6.654148,5.449650,66739.545725
36.400000,17.830759,17.808749,7014.744192,6.654171,5.449728,66739.615960
36.450000,17.830998,17.808875,7024.623435,6.654195,5.449829,66739.726257
36.500000,17.831276,17.809005,7034.502998,6.654222,5.449948,66739.890007
36.550000,17.831603,17.809139,7044.383068,6.654249,5.450075,66740.123362
36.600000,17.831963,17.809280,7054.263347,6.654277,5.450206,66740.446832
36.650000,17.832353,17.809429,7064.144277,6.654304,5.450339,66740.881008
36.700000,17.832763,17.809586,7074.026126,6.654332,5.450472,66741.445733
36.750000,17.833196,17.809763,7083.909132,6.654360,5.450607,66742.159564
36.800000,17.833641,17.809955,7093.793616,6.654388,5.450744,66743.044260
36.850000,17.834098,17.810165,7103.679757,6.654416,5.450887,66744.117613
36.900000,17.834566,17.810394,7113.567225,6.654442,5.451038,66745.397095
36.950000,17.835042,17.810646,7123.456033,6.654468,5.451197,66746.900473
37.000000,17.835524,17.810923,7133.346528,6.654494,5.451363,66748.644524
37.050000,17.836010,17.811222,7143.238636,6.654520,5.451535,66750.645766
37.100000,17.836498,17.811539,7153.132530,6.654545,5.451716,66752.920431
37.150000,17.836988,17.811881,7163.028482,6.654571,5.451907,66755.480615
37.200000,17.837479,17.812248,7172.926591,6.654596,5.452111,66758.339756
37.250000,17.837971,17.812639,7182.827334,6.654621,5.452327,66761.508619
37.300000,17.838462,17.813051,7192.730422,6.654646,5.452554,66764.994446
37.350000,17.838953,17.813482,7202.635919,6.654670,5.452789,66768.799723
37.400000,17.839444,17.813935,7212.543873,6.654695,5.453035,66772.926682
37.450000,17.839934,17.814412,7222.454153,6.654719,5.453289,66777.377646
37.500000,17.840422,17.814910,7232.366883,6.654745,5.453543,66782.153054
37.550000,17.840907,17.815431,7242.282314,6.654772,5.453794,66787.250438
37.600000,17.841388,17.815971,7252.200415,6.654802,5.454041,66792.660063
37.650000,17.841866,17.816529,7262.121285,6.654836,5.454285,66798.366068
37.700000,17.842338,17.817104,7272.043884,6.654874,5.454523,66804.353466
37.750000,17.842800,17.817686,7281.968049,6.654918,5.454750,66810.609907
37.800000,17.843250,17.818270,7291.893378,6.654968,5.454965,66817.108296
37.850000,17.843689,17.818851,7301.819277,6.655024,5.455173,66823.814876
37.900000,17.844119,17.819428,7311.745790,6.655089,5.455370,66830.691021
37.950000,17.844539,17.819998,7321.672611,6.655164,5.455553,66837.698377
38.000000,17.844953,17.820560,7331.600561,6.655247,5.455721,66844.795167
38.050000,17.845359,17.821110,7341.529208,6.655338,5.455876,66851.942208
38.100000,17.845757,17.821647,7351.458102,6.655435,5.456024,66859.098408
38.150000,17.846151,17.822169,7361.387585,6.655537,5.456168,66866.217754
38.200000,17.846540,17.822675,7371.316778,6.655645,5.456311,66873.259551
38.250000,17.846926,17.823163,7381.245518,6.655758,5.456454,66880.188625
38.300000,17.847308,17.823622,7391.173383,6.655877,5.456598,66886.975151
38.350000,17.847689,17.824058,7401.099734,6.655999,5.456738,66893.586544
38.400000,17.848068,17.824468,7411.024244,6.656123,5.456874,66899.998739
38.450000,17.848446,17.824851,7420.947776,6.656250,5.457004,66906.189720
38.500000,17.848824,17.825204,7430.869942,6.656380,5.457128,66912.138566
38.550000,17.849200,17.825528,7440.790188,6.656512,5.457248,66917.826986
38.600000,17.849577,17.825824,7450.708613,6.656645,5.457363,66923.238215
38.650000,17.849953,17.826098,7460.624737,6.656779,5.457472,66928.356901
38.700000,17.850330,17.826343,7470.538319,6.656914,5.457577,66933.173433
38.750000,17.850706,17.826562,7480.449385,6.657052,5.457676,66937.677250
38.800000,17.851082,17.826754,7490.357246,6.657190,5.457771,66941.861399
38.850000,17.851458,17.826923,7500.262229,6.657329,5.457863,66945.723130
38.900000,17.851835,17.827072,7510.164383,6.657470,5.457954,66949.264906
38.950000,17.852211,17.827200,7520.063714,6.657610,5.458043,66952.489474
39.000000,17.852587,17.827305,7529.960504,6.657751,5.458129,66955.399485
39.050000,17.852963,17.827388,7539.854454,6.657889,5.458216,66957.999289
39.100000,17.853338,17.827451,7549.745164,6.658024,5.458302,66960.295677
39.150000,17.853711,17.827500,7559.632662,6.658157,5.458388,66962.301568
39.200000,17.854082,17.827533,7569.516827,6.658284,5.458475,66964.034395
39.250000,17.854449,17.827553,7579.398243,6.658407,5.458561,66965.510012
39.300000,17.854796,17.827568,7589.277047,6.658521,5.458643,66966.741525
39.350000,17.855115,17.827579,7599.153616,6.658628,5.458722,66967.752316
39.400000,17.855397,17.827589,7609.028367,6.658724,5.458800,66968.568765
39.450000,17.855646,17.827597,7618.901249,6.658808,5.458874,66969.218220
39.500000,17.855851,17.827604,7628.772574,6.658880,5.458940,66969.725492
39.550000,17.856025,17.827610,7638.641830,6.658941,5.458996,66970.114924
39.600000,17.856166,17.827616,7648.509266,6.658993,5.459047,66970.407146
39.650000,17.856268,17.827622,7658.375144,6.659039,5.459097,66970.621452
39.700000,17.856345,17.827628,7668.239403,6.659079,5.459148,66970.776840
39.750000,17.856401,17.827634,7678.102503,6.659114,5.459198,66970.887922
39.800000,17.856445,17.827639,7687.964542,6.659146,5.459247,66970.965703
39.850000,17.856474,17.827645,7697.825799,6.659171,5.459297,66971.018314
39.900000,17.856499,17.827650,7707.686751,6.659194,5.459346,66971.053379
39.950000,17.856517,17.827656,7717.547799,6.659216,5.459395,66971.075730
40.000000,17.856530,17.827662,7727.408355,6.659235,5.459443,66971.089178
40.050000,17.856540,17.827667,7737.268730,6.659252,5.459489,66971.096745
40.100000,17.856548,17.827672,7747.129109,6.659268,5.459534,66971.100614
40.150000,17.856555,17.827677,7756.989449,6.659283,5.459579,66971.102361
40.200000,17.856562,17.827682,7766.850040,6.659297,5.459621,66971.103065
40.250000,17.856569,17.827687,7776.710952,6.659309,5.459661,66971.103246
40.300000,17.856577,17.827692,7786.571917,6.659321,5.459697,66971.103276
40.350000,17.856584,17.827697,7796.433026,6.659333,5.459726,66971.103283
40.400000,17.856592,17.827702,7806.294094,6.659344,5.459751,66971.103290
40.450000,17.856599,17.827707,7816.155175,6.659355,5.459770,66971.103299
40.500000,17.856607,17.827712,7826.016235,6.659366,5.459784,66971.103306
40.550000,17.856614,17.827717,7835.877036,6.659379,5.459794,66971.103314
40.600000,17.856622,17.827722,7845.737734,6.659392,5.459805,66971.103322
40.650000,17.856629,17.827726,7855.598702,6.659407,5.459815,66971.103330
40.700000,17.856637,17.827730,7865.459859,6.659424,5.459825,66971.103338
40.750000,17.856643,17.827735,7875.321103,6.659443,5.459836,66971.103347
40.800000,17.856650,17.827739,7885.182355,6.659463,5.459846,66971.103356
40.850000,17.856656,17.827743,7895.043498,6.659487,5.459856,66971.103365
40.900000,17.856663,17.827747,7904.904304,6.659512,5.459866,66971.103374
40.950000,17.856668,17.827751,7914.764636,6.659539,5.459876,66971.103383
41.000000,17.856674,17.827755,7924.624570,6.659568,5.459886,66971.103393
41.050000,17.856679,17.827758,7934.483861,6.659598,5.459895,66971.103402
41.100000,17.856684,17.827762,7944.342787,6.659628,5.459904,66971.103412
41.150000,17.856689,17.827765,7954.201303,6.659660,5.459912,66971.103421
41.200000,17.856694,17.827769,7964.059303,6.659692,5.459920,66971.103431
41.250000,17.856698,17.827772,7973.916726,6.659725,5.459928,66971.103440
41.300000,17.856702,17.827775,7983.773628,6.659758,5.459936,66971.103449
41.350000,17.856706,17.827779,7993.629913,6.659793,5.459943,66971.103458
41.400000,17.856710,17.827782,8003.485423,6.659829,5.459950,66971.103468
41.450000,17.856714,17.827786,8013.340097,6.659865,5.459960,66971.103477
41.500000,17.856718,17.827789,8023.193580,6.659900,5.459979,66971.103485
41.550000,17.856722,17.827792,8033.045993,6.659939,5.460020,66971.103494
41.600000,17.856726,17.827795,8042.898200,6.659994,5.460112,66971.103503
41.650000,17.856735,17.827799,8052.751261,6.660172,5.460379,66971.103511
41.700000,17.856751,17.827808,8062.605515,6.660936,5.460966,66971.103520
41.750000,17.856776,17.827837,8072.460985,6.663568,5.462036,66971.103531
41.800000,17.856815,17.827932,8082.317711,6.670450,5.463789,66971.103563
41.850000,17.856883,17.828168,8092.176007,6.685216,5.466415,66971.103646
41.900000,17.856995,17.828695,8102.036051,6.713613,5.470001,66971.103856
41.950000,17.857206,17.829745,8111.896126,6.765089,5.474483,66971.104323
42.000000,17.857570,17.831740,8121.752793,6.851404,5.479932,66971.105056
42.050000,17.858157,17.835320,8131.602319,6.986030,5.486503,66971.105926
42.100000,17.859015,17.841480,8141.438399,7.186047,5.494468,66971.106816
42.150000,17.860190,17.851621,8151.254316,7.471643,5.503926,66971.107712
42.200000,17.861718,17.867617,8161.041077,7.864563,5.515234,66971.108687
42.250000,17.863651,17.891889,8170.788836,8.386129,5.528821,66971.109849
42.300000,17.866025,17.927537,8180.486391,9.058058,5.545027,66971.111338
42.350000,17.868858,17.978271,8190.121009,9.902937,5.563705,66971.113245
42.400000,17.872181,18.048414,8199.678651,10.940731,5.584722,66971.115563
42.450000,17.876043,18.142925,8209.146808,12.187622,5.607595,66971.118238
42.500000,17.880524,18.267427,8218.511878,13.659425,5.632214,66971.121217
42.550000,17.885662,18.428364,8227.758317,15.371344,5.658484,66971.124500
42.600000,17.891548,18.632631,8236.874644,17.331711,5.686287,66971.128073
42.650000,17.898254,18.887917,8245.846348,19.551210,5.715626,66971.132007
42.700000,17.905857,19.202492,8254.660599,22.043087,5.746401,66971.136390
42.750000,17.914405,19.585441,8263.303520,24.821845,5.778548,66971.141338
42.800000,17.923968,20.046445,8271.762313,27.899591,5.812121,66971.146897
42.850000,17.934600,20.595923,8280.023982,31.292323,5.847115,66971.153168
42.900000,17.946277,21.245098,8288.074421,35.017969,5.883479,66971.160246
42.950000,17.959042,22.005755,8295.900696,39.085598,5.921136,66971.168007
43.000000,17.972936,22.890587,8303.491080,43.500831,5.959988,66971.176377
43.050000,17.988055,23.912561,8310.834536,48.268938,5.999821,66971.185336
43.100000,18.004354,25.086042,8317.919994,53.394197,6.040470,66971.194966
43.150000,18.021867,26.425535,8324.736621,58.873412,6.081747,66971.205241
43.200000,18.040527,27.945998,8331.274344,64.697759,6.123167,66971.216137
43.250000,18.060355,29.662245,8337.525047,70.850191,6.164377,66971.227639
43.300000,18.081343,31.589417,8343.481632,77.307547,6.205064,66971.239882
43.350000,18.103539,33.741327,8349.137936,84.041878,6.244913,66971.252978
43.400000,18.126827,36.132279,8354.488471,91.024196,6.283673,66971.267148
43.450000,18.151153,38.775420,8359.528676,98.218548,6.321250,66971.282672
43.500000,18.176281,41.683599,8364.256916,105.579075,6.357741,66971.299854
43.550000,18.202026,44.867549,8368.674117,113.060365,6.393074,66971.318668
43.600000,18.228220,48.336447,8372.782276,120.619432,6.427090,66971.338862
43.650000,18.254758,52.097301,8376.586773,128.209194,6.459523,66971.360034
43.700000,18.281563,56.155062,8380.093765,135.781592,6.490302,66971.381799
43.750000,18.308568,60.513022,8383.311975,143.291590,6.519135,66971.403788
43.800000,18.335691,65.172598,8386.251534,150.699308,6.545713,66971.425678
43.850000,18.362881,70.133080,8388.924110,157.968330,6.569847,66971.447199
43.900000,18.390135,75.392378,8391.342972,165.063600,6.591698,66971.468211
43.950000,18.417425,80.947504,8393.522723,171.956842,6.611410,66971.488729
44.000000,18.444682,86.794252,8395.476460,178.627153,6.629387,66971.508850
44.050000,18.471785,92.927422,8397.218243,185.055538,6.645748,66971.528680
44.100000,18.498696,99.340461,8398.763837,191.225068,6.660600,66971.548226
44.150000,18.525278,106.026770,8400.125247,197.129061,6.674070,66971.567519
44.200000,18.551432,112.978503,8401.316922,202.757995,6.686182,66971.586442
44.250000,18.577067,120.187484,8402.351885,208.099501,6.697044,66971.604863
44.300000,18.602146,127.644092,8403.243988,213.140319,6.706730,66971.622634
44.350000,18.626592,135.338543,8404.005937,217.870840,6.715216,66971.639708
44.400000,18.650348,143.260166,8404.650403,222.277815,6.722531,66971.655979
44.450000,18.673501,151.397335,8405.190885,226.346900,6.728735,66971.671354
44.500000,18.696007,159.737964,8405.639776,230.073957,6.733910,66971.685984
44.550000,18.717843,168.268894,8406.008173,233.458607,6.738150,66971.699974
44.600000,18.738894,176.977215,8406.306606,236.500856,6.741630,66971.713362
44.650000,18.759233,185.848152,8406.545353,239.201773,6.744481,66971.726062
44.700000,18.778811,194.867233,8406.733626,241.569731,6.746821,66971.738112
44.750000,18.797705,204.019258,8406.879867,243.617781,6.748900,66971.749535
44.800000,18.815899,213.289568,8406.991372,245.365432,6.750843,66971.760353
44.850000,18.833418,222.663008,8407.074765,246.835891,6.752730,66971.770449
44.900000,18.850196,232.126394,8407.135869,248.054736,6.754609,66971.779722
44.950000,18.866336,241.665738,8407.179858,249.046269,6.756492,66971.787943
45.000000,18.881872,251.268471,8407.211168,249.838009,6.758380,66971.794806
45.050000,18.896986,260.922009,8407.233279,250.461406,6.760272,66971.799947
45.100000,18.911780,270.615881,8407.248893,250.944630,6.762169,66971.803431
45.150000,18.926334,280.341020,8407.260183,251.311664,6.764063,66971.805632
45.200000,18.940687,290.090075,8407.268667,251.586047,6.765919,66971.807005
45.250000,18.954878,299.857448,8407.275501,251.788897,6.767725,66971.807878
45.300000,18.968942,309.638335,8407.281454,251.937332,6.769401,66971.808475
45.350000,18.982903,319.429221,8407.287008,252.044791,6.770827,66971.808949
45.400000,18.996780,329.227928,8407.292454,252.121756,6.771882,66971.809376
45.450000,19.010551,339.033005,8407.297933,252.177066,6.772627,66971.809785
45.500000,19.024213,348.843082,8407.303495,252.216894,6.773112,66971.810172
45.550000,19.037790,358.657255,8407.309149,252.245323,6.773488,66971.810520
45.600000,19.051308,368.475058,8407.314865,252.265553,6.773786,66971.810801
45.650000,19.064773,378.296073,8407.320627,252.280019,6.774028,66971.811012
45.700000,19.078222,388.119748,8407.326337,252.289567,6.774236,66971.811145
45.750000,19.091686,397.945659,8407.331920,252.295330,6.774407,66971.811232
45.800000,19.105175,407.773220,8407.337271,252.298621,6.774559,66971.811298
45.850000,19.118690,417.602416,8407.342345,252.300590,6.774700,66971.811361
45.900000,19.132241,427.432810,8407.347077,252.301884,6.774823,66971.811421
45.950000,19.145840,437.263989,8407.351448,252.303016,6.774930,66971.811480
46.000000,19.159448,447.095671,8407.355520,252.304146,6.775028,66971.811539
46.050000,19.173073,456.927679,8407.359339,252.305246,6.775120,66971.811596
46.100000,19.186708,466.759917,8407.362896,252.306286,6.775207,66971.811645
46.150000,19.200371,476.592155,8407.366216,252.307198,6.775294,66971.811682
46.200000,19.214043,486.424391,8407.369369,252.307898,6.775383,66971.811713
46.250000,19.227748,496.256459,8407.372372,252.308441,6.775474,66971.811737
46.300000,19.241492,506.088528,8407.375251,252.308882,6.775565,66971.811757
46.350000,19.255267,515.920531,8407.378012,252.309281,6.775658,66971.811776
46.400000,19.269053,525.752764,8407.380664,252.309664,6.775752,66971.811791
46.450000,19.282867,535.584919,8407.383191,252.310051,6.775845,66971.811801
46.500000,19.296689,545.417067,8407.385602,252.310439,6.775937,66971.811811
46.550000,19.310522,555.249053,8407.387888,252.310823,6.776028,66971.811822
46.600000,19.324331,565.081167,8407.390078,252.311190,6.776119,66971.811834
46.650000,19.338148,574.913196,8407.392175,252.311546,6.776208,66971.811844
46.700000,19.351979,584.745099,8407.394205,252.311910,6.776296,66971.811852
46.750000,19.365827,594.576874,8407.396173,252.312466,6.776383,66971.811862
46.800000,19.379665,604.408112,8407.398077,252.313669,6.776468,66971.811882
46.850000,19.393472,614.238654,8407.399898,252.316475,6.776551,66971.811912
46.900000,19.407229,624.068334,8407.401618,252.321978,6.776629,66971.811954
46.950000,19.420925,633.896723,8407.403238,252.331445,6.776704,66971.812002
47.000000,19.434576,643.723211,8407.404775,252.346399,6.776774,66971.812051
47.050000,19.448199,653.546995,8407.406284,252.368987,6.776841,66971.812100
47.100000,19.461774,663.367174,8407.407850,252.402112,6.776903,66971.812149
47.150000,19.475328,673.181930,8407.409636,252.450416,6.776960,66971.812198
47.200000,19.488853,682.989566,8407.411929,252.520186,6.777021,66971.812247
47.250000,19.502363,692.787229,8407.415156,252.619061,6.777094,66971.812296
47.300000,19.515865,702.572004,8407.419969,252.756714,6.777203,66971.812347
47.350000,19.529372,712.339141,8407.427324,252.944858,6.777339,66971.812411
47.400000,19.542905,722.083110,8407.438454,253.197197,6.777497,66971.812502
47.450000,19.556502,731.797034,8407.455106,253.531336,6.777668,66971.812629
47.500000,19.570162,741.473436,8407.479511,253.966451,6.777844,66971.812779
47.550000,19.583881,751.103627,8407.514550,254.524110,6.778029,66971.812944
47.600000,19.597661,760.676932,8407.563795,255.226450,6.778222,66971.813135
47.650000,19.611500,770.182237,8407.631504,256.096859,6.778429,66971.813374
47.700000,19.625428,779.606886,8407.722693,257.158429,6.778644,66971.813732
47.750000,19.639495,788.937589,8407.843331,258.434639,6.778860,66971.814301
47.800000,19.653718,798.160615,8408.000192,259.947360,6.779077,66971.815105
47.850000,19.668088,807.262214,8408.200354,261.713665,6.779292,66971.816122
47.900000,19.682605,816.228464,8408.451883,263.750293,6.779505,66971.817372
47.950000,19.697290,825.045009,8408.763300,266.073252,6.779719,66971.818905
48.000000,19.712144,833.697991,8409.144585,268.698659,6.779938,66971.820786
48.050000,19.727188,842.173621,8409.605865,271.637454,6.780175,66971.823145
48.100000,19.742460,850.458240,8410.157719,274.897937,6.780453,66971.826093
48.150000,19.757977,858.538684,8410.811953,278.484477,6.780812,66971.829594
48.200000,19.773618,866.403169,8411.581891,282.399917,6.781379,66971.833423
48.250000,19.789357,874.040099,8412.480924,286.642048,6.782188,66971.837601
48.300000,19.805176,881.438532,8413.523017,291.204224,6.783280,66971.842162
48.350000,19.821076,888.588403,8414.721887,296.075806,6.784730,66971.847186
48.400000,19.837049,895.480503,8416.091067,301.241536,6.786573,66971.852699
48.450000,19.853104,902.106203,8417.644066,306.688390,6.788812,66971.858704
48.500000,19.869227,908.457812,8419.395045,312.404467,6.791450,66971.865178
48.550000,19.885378,914.528545,8421.358165,318.376752,6.794489,66971.872067
48.600000,19.901498,920.312611,8423.547211,324.589039,6.797925,66971.879321
48.650000,19.917570,925.805123,8425.976260,331.022923,6.801744,66971.886935
48.700000,19.933548,931.002725,8428.658344,337.653968,6.805979,66971.894919
48.750000,19.949403,935.903026,8431.605330,344.454028,6.810738,66971.903296
48.800000,19.965103,940.505275,8434.828742,351.393163,6.816084,66971.912067
48.850000,19.980608,944.809692,8438.338373,358.437224,6.822127,66971.921170
48.900000,19.995876,948.819004,8442.142155,365.550177,6.828841,66971.930520
48.950000,20.010837,952.537316,8446.246811,372.694641,6.836208,66971.940040
49.000000,20.025422,955.970594,8450.656826,379.829015,6.844195,66971.949713
49.050000,20.039602,959.125919,8455.375263,386.912818,6.852751,66971.959592
49.100000,20.053363,962.011970,8460.402392,393.905057,6.861910,66971.969724
49.150000,20.066683,964.639505,8465.736858,400.768126,6.871659,66971.980064
49.200000,20.079549,967.019960,8471.375650,407.465633,6.882036,66971.990526
49.250000,20.091922,969.166106,8477.314441,413.965251,6.892998,66972.000929
49.300000,20.103726,971.091596,8483.547045,420.236548,6.904508,66972.011104
49.350000,20.114930,972.810344,8490.065687,426.253165,6.916525,66972.021019
49.400000,20.125515,974.336275,8496.863033,431.996449,6.929028,66972.030701
49.450000,20.135487,975.683381,8503.930041,437.449590,6.941980,66972.040127
49.500000,20.144823,976.865893,8511.257697,442.597600,6.955345,66972.049229
49.550000,20.153530,977.897543,8518.834315,447.426400,6.969039,66972.057933
49.600000,20.161594,978.791872,8526.649193,451.928546,6.982991,66972.066097
49.650000,20.168984,979.562173,8534.691990,456.100026,6.997080,66972.073625
49.700000,20.175702,980.221040,8542.950317,459.941293,7.011181,66972.080567
49.750000,20.181847,980.780036,8551.408617,463.454138,7.025036,66972.087158
49.800000,20.187447,981.250258,8560.053119,466.645423,7.038595,66972.093383
49.850000,20.192527,981.642130,8568.869463,469.525675,7.051801,66972.099217
49.900000,20.197105,981.965426,8577.844246,472.108463,7.064562,66972.104576
49.950000,20.201200,982.229127,8586.963891,474.410666,7.076846,66972.109444
50.000000,20.204830,982.441584,8596.214924,476.446648,7.088657,66972.113825
50.050000,20.208014,982.610470,8605.583238,478.229226,7.099996,66972.117753
50.100000,20.210786,982.742728,8615.054871,479.771643,7.110872,66972.121289
50.150000,20.213189,982.844636,8624.616295,481.088971,7.121291,66972.124485
50.200000,20.215251,982.921784,8634.253732,482.197019,7.131278,66972.127351
50.250000,20.217004,982.979041,8643.954598,483.114562,7.140806,66972.129884
50.300000,20.218476,983.020655,8653.707315,483.861443,7.149765,66972.132067
50.350000,20.219690,983.050214,8663.500593,484.457296,7.158093,66972.133903
50.400000,20.220676,983.070753,8673.324605,484.922940,7.165674,66972.135448
50.450000,20.221464,983.084644,8683.171066,485.278436,7.172555,66972.136765
50.500000,20.222091,983.093778,8693.032633,485.542779,7.178771,66972.137905
50.550000,20.222590,983.099593,8702.903514,485.734498,7.184376,66972.138875
50.600000,20.222979,983.103193,8712.778704,485.869640,7.189435,66972.139648
50.650000,20.223274,983.105366,8722.655483,485.962437,7.193921,66972.140195
50.700000,20.223488,983.106627,8732.531878,486.024014,7.197858,66972.140546
50.750000,20.223633,983.107340,8742.406645,486.063606,7.201217,66972.140748
50.800000,20.223727,983.107731,8752.278966,486.087913,7.204053,66972.140881
50.850000,20.223790,983.107932,8762.148733,486.102193,7.206408,66972.140990
50.900000,20.223831,983.108031,8772.016469,486.110289,7.208329,66972.141082
50.950000,20.223860,983.108078,8781.882087,486.114534,7.209839,66972.141158
51.000000,20.223881,983.108102,8791.746147,486.116511,7.210974,66972.141219
51.050000,20.223898,983.108114,8801.608671,486.117313,7.211769,66972.141276
51.100000,20.223914,983.108121,8811.470727,486.117638,7.212288,66972.141332
51.150000,20.223930,983.108126,8821.332254,486.117773,7.212579,66972.141382
51.200000,20.223947,983.108130,8831.192421,486.117833,7.212717,66972.141409
51.250000,20.223964,983.108132,8841.051206,486.117857,7.212761,66972.141412
51.300000,20.223982,983.108133,8850.910173,486.117873,7.212785,66972.141415
51.350000,20.224001,983.108134,8860.769285,486.117884,7.212797,66972.141417
51.400000,20.224021,983.108135,8870.628680,486.117894,7.212805,66972.141418
51.450000,20.224042,983.108136,8880.487561,486.117903,7.212814,66972.141419
51.500000,20.224063,983.108136,8890.345913,486.117912,7.212823,66972.141420
51.550000,20.224085,983.108137,8900.203934,486.117922,7.212832,66972.141421
51.600000,20.224107,983.108137,8910.061896,486.117931,7.212845,66972.141429
51.650000,20.224129,983.108138,8919.919733,486.117941,7.212868,66972.141467
51.700000,20.224153,983.108138,8929.777251,486.117951,7.212918,66972.141540
51.750000,20.224179,983.108139,8939.634755,486.117961,7.213045,66972.141641
51.800000,20.224210,983.108139,8949.492188,486.117971,7.213351,66972.141769
51.850000,20.224250,983.108139,8959.349624,486.117981,7.213994,66972.141924
51.900000,20.224309,983.108140,8969.206984,486.117991,7.215391,66972.142103
51.950000,20.224410,983.108140,8979.064239,486.118001,7.218826,66972.142318
52.000000,20.224604,983.108140,8988.921387,486.118012,7.226750,66972.142581
52.050000,20.225012,983.108141,8998.777584,486.118036,7.244209,66972.142926
52.100000,20.225846,983.108142,9008.631779,486.118093,7.280663,66972.143482
52.150000,20.227571,983.108145,9018.480592,486.118253,7.349080,66972.144521
52.200000,20.230945,983.108149,9028.319962,486.118625,7.463793,66972.146372
52.250000,20.237036,983.108156,9038.144582,486.119240,7.638327,66972.149310
52.300000,20.247381,983.108166,9047.948069,486.120048,7.889008,66972.153450
52.350000,20.263871,983.108178,9057.722708,486.120991,8.226862,66972.158949
52.400000,20.288945,983.108190,9067.460701,486.122015,8.665708,66972.166010
52.450000,20.325631,983.108202,9077.153270,486.123082,9.227203,66972.174464
52.500000,20.377587,983.108215,9086.789441,486.124180,9.934886,66972.184153
52.550000,20.448971,983.108229,9096.358900,486.125277,10.810837,66972.194891
52.600000,20.544940,983.108242,9105.847633,486.126374,11.893113,66972.206635
52.650000,20.671441,983.108257,9115.240620,486.127474,13.220659,66972.219330
52.700000,20.835092,983.108271,9124.521409,486.128575,14.833882,66972.232923
52.750000,21.043220,983.108286,9133.672525,486.129676,16.769785,66972.247399
52.800000,21.303634,983.108301,9142.676227,486.130780,19.060156,66972.262685
52.850000,21.624783,983.108316,9151.514697,486.131886,21.724600,66972.278731
52.900000,22.015855,983.108331,9160.170950,486.132993,24.762589,66972.295555
52.950000,22.486741,983.108347,9168.629079,486.134102,28.175895,66972.313153
53.000000,23.048151,983.108362,9176.874831,486.135213,31.964521,66972.331512
53.050000,23.711447,983.108378,9184.894526,486.136325,36.128644,66972.350642
53.100000,24.488769,983.108393,9192.675268,486.137439,40.668675,66972.370552
53.150000,25.393181,983.108409,9200.204936,486.138553,45.586474,66972.391076
53.200000,26.438169,983.108425,9207.472653,486.139667,50.885504,66972.412033
53.250000,27.637891,983.108441,9214.468650,486.140778,56.567663,66972.433399
53.300000,29.007033,983.108458,9221.183394,486.141890,62.629648,66972.455200
53.350000,30.560844,983.108474,9227.608554,486.143002,69.067449,66972.477454
53.400000,32.315169,983.108491,9233.736653,486.144116,75.876796,66972.500164
53.450000,34.286109,983.108507,9239.561278,486.145230,83.047207,66972.523327
53.500000,36.489579,983.108524,9245.077051,486.146344,90.556053,66972.546885
53.550000,38.940904,983.108541,9250.279488,486.147455,98.374735,66972.570756
53.600000,41.653775,983.108559,9255.166041,486.148557,106.462503,66972.594820
53.650000,44.641151,983.108577,9259.735317,486.149643,114.764795,66972.618739
53.700000,47.912292,983.108596,9263.989386,486.150701,123.225451,66972.642061
53.750000,51.474667,983.108616,9267.931478,486.151720,131.795094,66972.664401
53.800000,55.334605,983.108638,9271.566815,486.152709,140.433299,66972.685509
53.850000,59.496095,983.108661,9274.902423,486.153677,149.096918,66972.705308
53.900000,63.962765,983.108685,9277.947095,486.154635,157.760256,66972.723694
53.950000,68.736337,983.108709,9280.710114,486.155589,166.393166,66972.740540
54.000000,73.816919,983.108734,9283.202102,486.156542,174.951461,66972.756008
54.050000,79.203019,983.108759,9285.435818,486.157495,183.392101,66972.770252
54.100000,84.892650,983.108785,9287.423583,486.158448,191.678409,66972.783446
54.150000,90.880865,983.108811,9289.181029,486.159401,199.751099,66972.795648
54.200000,97.161248,983.108837,9290.724542,486.160355,207.556288,66972.806924
54.250000,103.726582,983.108862,9292.071570,486.161310,215.043478,66972.817334
54.300000,110.568755,983.108888,9293.240103,486.162265,222.171170,66972.826910
54.350000,117.679774,983.108914,9294.247987,486.163221,228.907671,66972.835730
54.400000,125.051104,983.108939,9295.112763,486.164178,235.237101,66972.843852
54.450000,132.673036,983.108965,9295.850891,486.165136,241.166476,66972.851273
54.500000,140.535360,983.108991,9296.477613,486.166095,246.700088,66972.858007
54.550000,148.626738,983.109018,9297.006916,486.167057,251.844224,66972.864080
54.600000,156.935299,983.109044,9297.451859,486.168021,256.605012,66972.869493
54.650000,165.448263,983.109072,9297.824520,486.168987,260.988249,66972.874252
54.700000,174.152086,983.109100,9298.136106,486.169954,264.997854,66972.878495
54.750000,183.032853,983.109130,9298.396834,486.170923,268.635992,66972.882353
54.800000,192.076111,983.109161,9298.615990,486.171893,271.906347,66972.885849
54.850000,201.266980,983.109193,9298.802120,486.172866,274.817479,66972.888972
54.900000,210.590246,983.109227,9298.962843,486.173840,277.378294,66972.891716
54.950000,220.030124,983.109262,9299.104925,486.174816,279.597607,66972.894086
55.000000,229.570852,983.109299,9299.234234,486.175793,281.489184,66972.896089
55.050000,239.196761,983.109338,9299.355770,486.176770,283.075982,66972.897767
55.100000,248.893058,983.109378,9299.473725,486.177747,284.384201,66972.899174
55.150000,258.646550,983.109420,9299.591361,486.178713,285.446903,66972.900373
55.200000,268.444830,983.109464,9299.711171,486.179650,286.303471,66972.901494
55.250000,278.279038,983.109508,9299.834787,486.180497,286.990266,66972.902616
55.300000,288.141529,983.109553,9299.963223,486.181154,287.535967,66972.903717
55.350000,298.025620,983.109598,9300.096934,486.181594,287.962324,66972.904737
55.400000,307.926362,983.109644,9300.235948,486.181869,288.290355,66972.905642
55.450000,317.838781,983.109692,9300.379944,486.182030,288.531816,66972.906391
55.500000,327.759129,983.109744,9300.528241,486.182127,288.699360,66972.906919
55.550000,337.684490,983.109801,9300.679967,486.182194,288.809530,66972.907289
55.600000,347.612836,983.109863,9300.834179,486.182243,288.876280,66972.907552
55.650000,357.541998,983.109929,9300.989694,486.182291,288.910053,66972.907757
55.700000,367.471663,983.109999,9301.145673,486.182338,288.924751,66972.907918
55.750000,377.402090,983.110074,9301.301402,486.182376,288.929735,66972.908045
55.800000,387.333512,983.110153,9301.456458,486.182411,288.931056,66972.908149
55.850000,397.266378,983.110236,9301.610663,486.182440,288.931576,66972.908235
55.900000,407.200483,983.110324,9301.764016,486.182462,288.932088,66972.908312
55.950000,417.135401,983.110417,9301.916625,486.182477,288.932529,66972.908384
56.000000,427.071190,983.110513,9302.068646,486.182492,288.932935,66972.908451
56.050000,437.007579,983.110612,9302.220207,486.182507,288.933304,66972.908513
56.100000,446.944851,983.110714,9302.371396,486.182521,288.933654,66972.908570
56.150000,456.883064,983.110819,9302.522250,486.182534,288.934002,66972.908621
56.200000,466.822490,983.110926,9302.672746,486.182547,288.934349,66972.908667
56.250000,476.763119,983.111035,9302.822862,486.182559,288.934695,66972.908707
56.300000,486.705135,983.111146,9302.972621,486.182570,288.935042,66972.908743
56.350000,496.648519,983.111258,9303.122019,486.182580,288.935387,66972.908775
56.400000,506.593332,983.111371,9303.271083,486.182589,288.935732,66972.908804
56.450000,516.539407,983.111485,9303.419823,486.182597,288.936076,66972.908829
56.500000,526.486781,983.111600,9303.568253,486.182604,288.936421,66972.908850
56.550000,536.435141,983.111717,9303.716402,486.182612,288.936763,66972.908868
56.600000,546.384572,983.111833,9303.864298,486.182619,288.937101,66972.908885
56.650000,556.334931,983.111951,9304.011929,486.182627,288.937429,66972.908900
56.700000,566.286415,983.112067,9304.159277,486.182634,288.937754,66972.908916
56.750000,576.238944,983.112183,9304.306330,486.182642,288.938095,66972.908933
56.800000,586.192406,983.112297,9304.453060,486.182649,288.938512,66972.908952
56.850000,596.147108,983.112409,9304.599412,486.182666,288.939171,66972.908974
56.900000,606.102983,983.112517,9304.745202,486.182728,288.940460,66972.909001
56.950000,616.060155,983.112623,9304.890119,486.182896,288.943051,66972.909036
57.000000,626.018677,983.112725,9305.033789,486.183175,288.948279,66972.909079
57.050000,635.978346,983.112823,9305.175840,486.183574,288.958221,66972.909129
57.100000,645.939078,983.112917,9305.315693,486.184088,288.976466,66972.909190
57.150000,655.900891,983.113006,9305.452693,486.184716,289.008198,66972.909270
57.200000,665.862993,983.113091,9305.586184,486.185456,289.059814,66972.909368
57.250000,675.823983,983.113171,9305.715557,486.186298,289.139919,66972.909485
57.300000,685.781679,983.113248,9305.840257,486.187245,289.260620,66972.909616
57.350000,695.733671,983.113321,9305.959824,486.188322,289.435277,66972.909758
57.400000,705.676163,983.113390,9306.074134,486.189523,289.670115,66972.909910
57.450000,715.605007,983.113455,9306.183368,486.190837,289.971501,66972.910070
57.500000,725.515783,983.113516,9306.288089,486.192258,290.348981,66972.910235
57.550000,735.403146,983.113573,9306.389283,486.193805,290.814838,66972.910401
57.600000,745.261030,983.113626,9306.488413,486.195485,291.382024,66972.910569
57.650000,755.081706,983.113675,9306.587511,486.197308,292.066458,66972.910738
57.700000,764.856487,983.113721,9306.689332,486.199275,292.893070,66972.910906
57.750000,774.574998,983.113764,9306.797381,486.201399,293.894840,66972.911077
57.800000,784.224799,983.113803,9306.915981,486.203728,295.103574,66972.911263
57.850000,793.791368,983.113842,9307.049267,486.206307,296.553303,66972.911486
57.900000,803.259783,983.113881,9307.203278,486.209181,298.287464,66972.911785
57.950000,812.614016,983.113919,9307.384955,486.212359,300.340036,66972.912249
58.000000,821.838369,983.113956,9307.601978,486.215839,302.731259,66972.912934
58.050000,830.916975,983.113992,9307.862945,486.219639,305.472460,66972.913907
58.100000,839.834661,983.114025,9308.177206,486.223771,308.570992,66972.915237
58.150000,848.576854,983.114056,9308.554482,486.228238,312.031536,66972.916931
58.200000,857.131649,983.114085,9309.007209,486.232937,315.837908,66972.918889
58.250000,865.485414,983.114115,9309.547442,486.237854,319.991982,66972.921116
58.300000,873.625591,983.114143,9310.188215,486.242985,324.493786,66972.923622
58.350000,881.540148,983.114171,9310.943388,486.248310,329.340984,66972.926427
58.400000,889.217489,983.114197,9311.827559,486.253748,334.527892,66972.929547
58.450000,896.646930,983.114224,9312.855570,486.259180,340.044808,66972.932995
58.500000,903.818298,983.114249,9314.042645,486.264490,345.880141,66972.936794
58.550000,910.722154,983.114274,9315.404311,486.269668,352.016416,66972.940949
58.600000,917.350201,983.114298,9316.956412,486.274709,358.433071,66972.945464
58.650000,923.694729,983.114322,9318.714083,486.279621,365.102403,66972.950367
58.700000,929.748615,983.114345,9320.691673,486.284404,371.992890,66972.955696
58.750000,935.506551,983.114367,9322.903065,486.289068,379.072985,66972.961456
58.800000,940.964522,983.114389,9325.361591,486.293627,386.306285,66972.967657
58.850000,946.120132,983.114411,9328.079052,486.298078,393.649581,66972.974281
58.900000,950.971953,983.114433,9331.063971,486.302391,401.062589,66972.981312
58.950000,955.520692,983.114454,9334.325264,486.306572,408.529047,66972.988743
59.000000,959.767991,983.114475,9337.871315,486.310640,416.032802,66972.996559
59.050000,963.716431,983.114496,9341.709504,486.314602,423.550989,66973.004749
59.100000,967.370008,983.114516,9345.845428,486.318437,431.055618,66973.013286
59.150000,970.734029,983.114537,9350.283341,486.322135,438.519342,66973.022162
59.200000,973.815635,983.114558,9355.026001,486.325687,445.910516,66973.031375
59.250000,976.623420,983.114578,9360.073999,486.329094,453.183859,66973.040879
59.300000,979.167846,983.114599,9365.426148,486.332340,460.285937,66973.050608
59.350000,981.461752,983.114620,9371.079490,486.335376,467.170915,66973.060478
59.400000,983.519927,983.114643,9377.035331,486.338163,473.794481,66973.070411
59.450000,985.357613,983.114668,9383.287276,486.340667,480.104767,66973.080294
59.500000,986.990971,983.114696,9389.827559,486.342884,486.066111,66973.089972
59.550000,988.435815,983.114727,9396.648248,486.344824,491.660975,66973.099364
59.600000,989.707876,983.114761,9403.740088,486.346478,496.882838,66973.108391
59.650000,990.822288,983.114797,9411.093335,486.347841,501.729716,66973.116988
59.700000,991.793324,983.114836,9418.699159,486.348917,506.202656,66973.125151
59.750000,992.632695,983.114880,9426.541571,486.349793,510.324684,66973.132999
59.800000,993.353427,983.114929,9434.608081,486.350486,514.099215,66973.140531
59.850000,993.967647,983.114984,9442.885034,486.350999,517.531349,66973.147740
59.900000,994.486881,983.115044,9451.358160,486.351353,520.628221,66973.154609
59.950000,994.922014,983.115109,9460.012515,486.351604,523.399771,66973.161128
60.000000,995.283202,983.115181,9468.833270,486.351815,525.859002,66973.167287
60.050000,995.579946,983.115259,9477.805450,486.352019,528.019953,66973.173067
60.100000,995.821043,983.115344,9486.913991,486.352216,529.900786,66973.178472
60.150000,996.014491,983.115435,9496.143634,486.352408,531.521104,66973.183503
60.200000,996.167685,983.115532,9505.480335,486.352593,532.904613,66973.188138
60.250000,996.287357,983.115636,9514.910956,486.352772,534.076125,66973.192342
60.300000,996.379392,983.115747,9524.423007,486.352943,535.058670,66973.196118
60.350000,996.449003,983.115864,9534.004276,486.353103,535.876751,66973.199468
60.400000,996.500671,983.115987,9543.644181,486.353253,536.556658,66973.202418
60.450000,996.538301,983.116115,9553.335224,486.353398,537.120581,66973.204993
60.500000,996.565086,983.116250,9563.069308,486.353538,537.577463,66973.207208
60.550000,996.583746,983.116390,9572.838218,486.353670,537.935941,66973.209084
60.600000,996.596537,983.116536,9582.634483,486.353794,538.207062,66973.210639
60.650000,996.605244,983.116687,9592.451995,486.353912,538.403383,66973.211902
60.700000,996.611250,983.116843,9602.285362,486.354027,538.536296,66973.212886
60.750000,996.615569,983.117004,9612.129945,486.354138,538.617863,66973.213596
60.800000,996.618903,983.117171,9621.982492,486.354248,538.662765,66973.214074
60.850000,996.621704,983.117343,9631.840699,486.354356,538.684971,66973.214371
60.900000,996.624215,983.117519,9641.702988,486.354464,538.693871,66973.214542
60.950000,996.626556,983.117694,9651.563813,486.354566,538.696186,66973.214626
61.000000,996.628799,983.117867,9661.423491,486.354654,538.696812,66973.214669
61.050000,996.630971,983.118038,9671.282755,486.354727,538.697270,66973.214705
61.100000,996.633116,983.118208,9681.120990,486.355077,538.697727,66973.214740
61.150000,996.635289,983.118380,9690.918627,486.356598,538.698118,66973.214773
61.200000,996.637577,983.118555,9700.656388,486.360761,538.698369,66973.214794
61.250000,996.640127,983.118734,9710.314435,486.369665,538.698445,66973.214803
61.300000,996.643206,983.118916,9719.877677,486.386023,538.698524,66973.214811
61.350000,996.647136,983.119103,9729.340326,486.414613,538.698607,66973.214820
61.400000,996.650988,983.119282,9738.449386,486.443205,538.698689,66973.214829
61.450000,996.654782,983.119456,9747.307355,486.471796,538.698770,66973.214838
61.500000,996.658519,983.119627,9755.914529,486.500385,538.698852,66973.214846
61.550000,996.662200,983.119796,9764.271770,486.528978,538.698933,66973.214854
61.600000,996.665834,983.119958,9772.379920,486.557567,538.699020,66973.214867
61.650000,996.669415,983.120115,9780.239510,486.586159,538.699119,66973.214880
61.700000,996.672964,983.120266,9787.851229,486.614752,538.699216,66973.214897
61.750000,996.676460,983.120410,9795.218836,486.643348,538.699311,66973.214916
61.800000,996.679907,983.120548,9802.342946,486.671949,538.699404,66973.214937
61.850000,996.684007,983.120703,9809.126275,486.766984,538.699504,66973.214963
61.900000,996.689632,983.120869,9815.571324,486.929303,538.699603,66973.214988
61.950000,996.697995,983.121046,9821.680573,487.158971,538.699719,66973.215013
62.000000,996.710661,983.121244,9827.456585,487.457074,538.699848,66973.215043
62.050000,996.729545,983.121454,9832.901822,487.823806,538.699975,66973.215082
62.100000,996.756922,983.121703,9838.063872,488.323982,538.700104,66973.215123
62.150000,0.000000,0.000000,0.000000,0.000000,0.000000,0.000000
62.200000,0.000000,0.000000,0.000000,0.000000,0.000000,0.000000
62.250000,0.000000,0.000000,0.000000,0.000000,0.000000,0.000000
62.300000,0.000000,0.000000,0.000000,0.000000,0.000000,0.000000
62.350000,0.000000,0.000000,0.000000,0.000000,0.000000,0.000000
62.400000,0.000000,0.000000,0.000000,0.000000,0.000000,0.000000
62.450000,0.000000,0.000000,0.000000,0.000000,0.000000,0.000000
62.500000,0.000000,0.000000,0.000000,0.000000,0.000000,0.000000
